key_resp.keys,key_resp.rt,key_resp_2.keys,key_resp_2.rt,key_resp_3.keys,key_resp_3.rt,key_resp_4.keys,key_resp_4.rt,key_resp_5.keys,key_resp_5.rt,key_resp_6.keys,key_resp_6.rt,key_resp_7.keys,key_resp_7.rt,key_resp_8.keys,key_resp_8.rt,key_resp_9.keys,key_resp_9.rt,key_resp_10.keys,key_resp_10.rt,key_resp_11.keys,key_resp_11.rt,key_resp_15.keys,key_resp_15.rt,trials_2.thisRepN,trials_2.thisTrialN,trials_2.thisN,trials_2.thisIndex,trials_2.ran,base_sentence_number,version,experiment,list,numb_words,gender,sentence,question,answer,CorrAns,w1,w2,w3,w4,w5,w6,w7,w8,w9,participant,session,date,expName,psychopyVersion,OS,frameRate,key_resp_16.keys,key_resp_16.rt,word1.keys,word1.rt,word2.keys,word2.rt,word3.keys,word3.rt,word4.keys,word4.rt,word5.keys,word5.rt,word6.keys,word6.rt,word7.keys,word7.rt,word8.keys,word8.rt,word9.keys,word9.rt,compquestion.keys,compquestion.corr,compquestion.rt,trials.thisRepN,trials.thisTrialN,trials.thisN,trials.thisIndex,trials.ran,endoftask.keys,endoftask.rt
space,20.7823,y,1.8,space,2.5677,space,0.992,space,1.6243,space,1.2037,space,0.6229,space,0.5877,space,0.5743,space,0.661,space,0.7196,n,4.031,0,0,0,0,1,NA,NA,practica,NA,NA,NA,Rita is uncomfortable because it is very hot outside.,Is it cold?,no,0,Rita,is,uncomfortable,because,it,is,very,hot,outside.,inc_j_beg_04,001,2023-07-20_08h38.10.752,spr_english_2023_list1,2021.1.1,Win32,59.99520038,,,,,,,,,,,,,,,,,,,,,,,,,,,,,,
,,,,space,1.8574,space,0.608,space,0.5715,space,0.472,space,0.5559,space,0.5098,space,0.4893,space,0.4265,space,0.5719,n,3.2717,0,1,1,1,1,NA,NA,practica,NA,NA,NA,Peter was running by himself in the park yesterday.,Was Peter painting the wall?,no,0,Peter,was,running,by,himself,in,the,park,yesterday.,inc_j_beg_04,001,2023-07-20_08h38.10.752,spr_english_2023_list1,2021.1.1,Win32,59.99520038,,,,,,,,,,,,,,,,,,,,,,,,,,,,,,
,,,,space,0.758,space,0.4062,space,0.3378,space,0.4051,space,0.456,space,0.4604,space,0.4392,space,1.4412,space,0.5092,y,4.3923,0,2,2,2,1,NA,NA,practica,NA,NA,NA,Hannah is watching tv because she is really bored.,Is Hannah in front of a screen?,yes,1,Hannah,is,watching,tv,because,she,is,really,bored.,inc_j_beg_04,001,2023-07-20_08h38.10.752,spr_english_2023_list1,2021.1.1,Win32,59.99520038,,,,,,,,,,,,,,,,,,,,,,,,,,,,,,
,,,,,,,,,,,,,,,,,,,,,,,,,,,,,1,1_1,neutral_gender_someone,1,9,masculine,Someone called me but he stopped before I answered,Did the person try to communicate?,yes,1,Someone,called,me,but,he,stopped,before,I,answered.,inc_j_beg_04,001,2023-07-20_08h38.10.752,spr_english_2023_list1,2021.1.1,Win32,59.99520038,space,32.8391,space,1.4713,space,0.5916,space,0.5051,space,0.4912,space,0.4558,space,0.4882,space,0.5264,space,0.4428,space,0.7262,y,0,3.938,0,0,0,0,1,,
,,,,,,,,,,,,,,,,,,,,,,,,,,,,,21,21_2,inclusive_gender_reflexive,1,9,themself,Jack was cooking by themself in the kitchen yesterday.,Was Jack in the kitchen?,yes,1,Jack,was,cooking,by,themself,in,the,kitchen,yesterday.,inc_j_beg_04,001,2023-07-20_08h38.10.752,spr_english_2023_list1,2021.1.1,Win32,59.99520038,,,space,0.5869,space,0.4724,space,0.5706,space,0.4559,space,0.3896,space,0.6728,space,0.4575,space,0.3868,space,0.5057,y,0,9.0733,0,1,1,1,1,,
,,,,,,,,,,,,,,,,,,,,,,,,,,,,,55,NA,filler,1and2,9,NA,The aroma of freshly brewed coffee filled the room.,Was the smell nice?,,1,The,aroma,of,freshly,brewed,coffee,filled,the,room.,inc_j_beg_04,001,2023-07-20_08h38.10.752,spr_english_2023_list1,2021.1.1,Win32,59.99520038,,,space,1.0878,space,0.4078,space,0.4883,space,0.307,space,0.8715,space,0.4431,space,0.4414,space,0.4208,space,0.9383,n,0,3.9065,0,2,2,2,1,,
,,,,,,,,,,,,,,,,,,,,,,,,,,,,,22,22_1,inclusive_gender_reflexive,1,9,himself,Max was painting by himself in the studio earlier.,Was Max watching tv?,no,0,Max,was,painting,by,himself,in,the,studio,earlier.,inc_j_beg_04,001,2023-07-20_08h38.10.752,spr_english_2023_list1,2021.1.1,Win32,59.99520038,,,space,20.048,space,0.7051,space,0.5474,space,0.5413,space,0.4897,space,0.3781,space,0.4565,space,0.3724,space,0.3438,n,0,1.4216,0,3,3,3,1,,
,,,,,,,,,,,,,,,,,,,,,,,,,,,,,33,33_1,inclusive_gender_they,1,9,she,Sara is happy because she found new friends yesterday.,Is Sara in a good mood?,yes,1,Sara,is,happy,because,she,found,new,friends,yesterday.,inc_j_beg_04,001,2023-07-20_08h38.10.752,spr_english_2023_list1,2021.1.1,Win32,59.99520038,,,space,0.2379,space,0.406,space,0.2513,space,0.3228,space,0.3899,space,0.3585,space,0.3558,space,0.5885,space,0.3924,y,0,2.3726,0,4,4,4,1,,
,,,,,,,,,,,,,,,,,,,,,,,,,,,,,31,31_2,inclusive_gender_reflexive,1,9,themself,Troy was singing by themself in the shower yesterday.,Was Troy singing?,yes,1,Troy,was,singing,by,themself,in,the,shower,yesterday.,inc_j_beg_04,001,2023-07-20_08h38.10.752,spr_english_2023_list1,2021.1.1,Win32,59.99520038,,,space,0.4879,space,0.2765,space,0.3124,space,0.471,space,0.4061,space,0.2945,space,0.3942,space,0.3725,space,0.4642,y,0,2.6219,0,5,5,5,1,,
,,,,,,,,,,,,,,,,,,,,,,,,,,,,,60,NA,filler,1and2,9,NA,"Soft raindrops tapped gently, creating a rhythmic melody outside.",Was it a sunny day?,,0,Soft,raindrops,tapped,"gently,",creating,a,rhythmic,melody,outside.,inc_j_beg_04,001,2023-07-20_08h38.10.752,spr_english_2023_list1,2021.1.1,Win32,59.99520038,,,space,16.8959,space,0.5747,space,0.4561,space,0.4381,space,0.4745,space,0.4382,space,0.3223,space,0.4556,space,0.356,y,0,2.4897,0,6,6,6,1,,
,,,,,,,,,,,,,,,,,,,,,,,,,,,,,34,34_2,inclusive_gender_they,1,9,they,Mary is sad because they lost the dog earlier.,Did mary lose something?,no,0,Mary,is,sad,because,they,lost,the,dog,earlier.,inc_j_beg_04,001,2023-07-20_08h38.10.752,spr_english_2023_list1,2021.1.1,Win32,59.99520038,,,space,0.9216,space,0.4432,space,0.3882,space,0.5274,space,0.6055,space,0.9228,space,0.6436,space,0.4213,space,0.3897,y,0,1.9556,0,7,7,7,1,,
,,,,,,,,,,,,,,,,,,,,,,,,,,,,,10,10_2,neutral_gender_someone,1,9,neutral,Someone shushed me but they stopped before I noticed.,Was the person happy to hear a voice?,no,0,Someone,shushed,me,but,they,stopped,before,I,noticed.,inc_j_beg_04,001,2023-07-20_08h38.10.752,spr_english_2023_list1,2021.1.1,Win32,59.99520038,,,space,0.7868,space,0.4563,space,0.6224,space,0.5097,space,0.4116,space,0.4059,space,0.4301,space,0.4051,space,0.3402,n,0,3.5577,0,8,8,8,1,,
,,,,,,,,,,,,,,,,,,,,,,,,,,,,,56,NA,filler,1and2,9,NA,"They went on an exciting trip, embracing their destiny.",Did they stay home?,,0,They,went,on,an,exciting,"trip,",embracing,their,destiny.,inc_j_beg_04,001,2023-07-20_08h38.10.752,spr_english_2023_list1,2021.1.1,Win32,59.99520038,,,space,0.6883,space,1.3064,space,0.4274,space,0.3561,space,0.3725,space,0.4276,space,0.4727,space,0.0892,space,1.0928,n,0,2.5258,0,9,9,9,1,,
,,,,,,,,,,,,,,,,,,,,,,,,,,,,,23,23_2,inclusive_gender_reflexive,1,9,themself,Ben was dancing by themself in the kitchen yesterday.,Was Ben in the kitchen?,yes,1,Ben,was,dancing,by,themself,in,the,kitchen,yesterday.,inc_j_beg_04,001,2023-07-20_08h38.10.752,spr_english_2023_list1,2021.1.1,Win32,59.99520038,,,space,4.4564,space,0.3877,space,0.3742,space,1.1091,space,0.4261,space,0.408,space,0.3891,space,0.4726,space,0.3717,y,0,3.0528,0,10,10,10,1,,
,,,,,,,,,,,,,,,,,,,,,,,,,,,,,9,9_1,neutral_gender_someone,1,9,masculine,Someone helped me but he left before I finished.,Did the person offer some help?,yes,1,Someone,helped,me,but,he,left,before,I,finished.,inc_j_beg_04,001,2023-07-20_08h38.10.752,spr_english_2023_list1,2021.1.1,Win32,59.99520038,,,space,2.7367,space,0.6178,space,0.3111,space,0.3729,space,0.4067,space,0.5239,space,0.4294,space,0.4058,space,0.3942,y,0,3.2912,0,11,11,11,1,,
,,,,,,,,,,,,,,,,,,,,,,,,,,,,,12,12_2,neutral_gender_someone,1,9,neutral,Someone scared me and they ran after I screamed.,Did the person write a note?,no,0,Someone,scared,me,and,they,ran,after,I,screamed.,inc_j_beg_04,001,2023-07-20_08h38.10.752,spr_english_2023_list1,2021.1.1,Win32,59.99520038,,,space,0.5044,space,0.8556,space,0.3467,space,0.3277,space,0.2113,space,0.3393,space,0.46,space,0.3629,space,0.3773,n,0,2.1768,0,12,12,12,1,,
,,,,,,,,,,,,,,,,,,,,,,,,,,,,,50,NA,filler,1and2,9,NA,"He smiled warmly, extending a hand in friendly greeting.",Did someone fall?,,0,He,smiled,"warmly,",extending,a,hand,in,friendly,greeting.,inc_j_beg_04,001,2023-07-20_08h38.10.752,spr_english_2023_list1,2021.1.1,Win32,59.99520038,,,space,0.5233,space,0.966,space,0.2909,space,0.4225,space,0.4387,space,0.4937,space,0.428,space,0.3706,space,0.523,n,0,2.0436,0,13,13,13,1,,
,,,,,,,,,,,,,,,,,,,,,,,,,,,,,36,36_2,inclusive_gender_they,1,9,they,Helen is anxious because they dread the presentation earlier.,Did Helen's presentation go well?,no,0,Helen,is,anxious,because,they,dread,the,presentation,earlier.,inc_j_beg_04,001,2023-07-20_08h38.10.752,spr_english_2023_list1,2021.1.1,Win32,59.99520038,,,space,1.0419,space,0.3206,space,0.2364,space,1.3604,space,0.6555,space,0.4225,space,0.4956,space,0.4551,space,0.3592,y,0,3.3381,0,14,14,14,1,,
,,,,,,,,,,,,,,,,,,,,,,,,,,,,,16,16_2,neutral_gender_someone,1,9,neutral,Someone passed me and they sped before I noticed.,Was everybody going slow?,no,0,Someone,passed,me,and,they,sped,before,I,noticed.,inc_j_beg_04,001,2023-07-20_08h38.10.752,spr_english_2023_list1,2021.1.1,Win32,59.99520038,,,space,17.2816,space,0.5229,space,0.4906,space,0.4925,space,0.496,space,0.3558,space,0.5897,space,0.556,space,0.3428,n,0,5.5268,0,15,15,15,1,,
,,,,,,,,,,,,,,,,,,,,,,,,,,,,,20,20_1,inclusive_gender_reflexive,1,9,himself,Mike was jogging by himself in the park earlier.,Was Mike sleeping?,no,0,Mike,was,jogging,by,himself,in,the,park,earlier.,inc_j_beg_04,001,2023-07-20_08h38.10.752,spr_english_2023_list1,2021.1.1,Win32,59.99520038,,,space,1.7452,space,0.7413,space,0.6059,space,0.5551,space,0.2388,space,0.4724,space,0.4256,space,0.456,space,0.5554,n,0,2.1091,0,16,16,16,1,,
,,,,,,,,,,,,,,,,,,,,,,,,,,,,,54,NA,filler,1and2,9,NA,"She danced a lot, her movements resembling pure poetry.",Was it an unpleasant dance?,,0,She,danced,a,"lot,",her,movements,resembling,pure,poetry.,inc_j_beg_04,001,2023-07-20_08h38.10.752,spr_english_2023_list1,2021.1.1,Win32,59.99520038,,,space,17.46,space,2.4643,space,0.3891,space,0.1717,space,0.2886,space,0.4557,space,0.2227,space,0.2421,space,0.4268,y,0,6.54,0,17,17,17,1,,
,,,,,,,,,,,,,,,,,,,,,,,,,,,,,4,4_2,neutral_gender_someone,1,9,neutral,Someone punched me but they ran before I noticed.,Was everybody involved peaceful?,no,0,Someone,punched,me,but,they,ran,before,I,noticed.,inc_j_beg_04,001,2023-07-20_08h38.10.752,spr_english_2023_list1,2021.1.1,Win32,59.99520038,,,space,1.4672,space,0.3231,space,0.4229,space,0.3881,space,0.4625,space,0.4555,space,0.5391,space,0.4755,space,0.4244,n,0,3.3052,0,18,18,18,1,,
,,,,,,,,,,,,,,,,,,,,,,,,,,,,,7,7_1,neutral_gender_someone,1,9,masculine,Someone threatened me but he ran before I reacted.,Was there a threat?,yes,1,Someone,threatened,me,but,he,ran,before,I,reacted.,inc_j_beg_04,001,2023-07-20_08h38.10.752,spr_english_2023_list1,2021.1.1,Win32,59.99520038,,,space,6.2073,space,0.5227,space,0.5962,space,0.4434,space,0.3432,space,0.3955,space,0.4605,space,0.5079,space,0.4254,y,0,10.5921,0,19,19,19,1,,
,,,,,,,,,,,,,,,,,,,,,,,,,,,,,19,19_2,inclusive_gender_reflexive,1,9,themself,James was studying by themself in the library yesterday.,Was James at the library?,yes,1,James,was,studying,by,themself,in,the,library,yesterday.,inc_j_beg_04,001,2023-07-20_08h38.10.752,spr_english_2023_list1,2021.1.1,Win32,59.99520038,,,space,6.9295,space,0.4628,space,0.2561,space,0.4227,space,0.431,space,0.375,space,0.5062,space,0.424,space,0.4725,y,0,2.0224,0,20,20,20,1,,
,,,,,,,,,,,,,,,,,,,,,,,,,,,,,11,11_1,neutral_gender_someone,1,9,masculine,Someone pushed me but he tripped after I fell.,Was there any sort of physical violence?,yes,1,Someone,pushed,me,but,he,tripped,after,I,fell.,inc_j_beg_04,001,2023-07-20_08h38.10.752,spr_english_2023_list1,2021.1.1,Win32,59.99520038,,,space,0.5261,space,0.3774,space,0.173,space,0.2062,space,0.7725,space,0.493,space,0.4202,space,0.4063,space,0.3585,y,0,4.3559,0,21,21,21,1,,
,,,,,,,,,,,,,,,,,,,,,,,,,,,,,37,37_1,inclusive_gender_they,1,9,she,Emily is grateful because she got nice gifts yesterday.,Did Emily get presents?,yes,1,Emily,is,grateful,because,she,got,nice,gifts,yesterday.,inc_j_beg_04,001,2023-07-20_08h38.10.752,spr_english_2023_list1,2021.1.1,Win32,59.99520038,,,space,0.6215,space,0.2215,space,0.3228,space,0.3424,space,0.3597,space,0.4726,space,0.3896,space,0.3423,space,0.4398,y,0,2.5501,0,22,22,22,1,,
,,,,,,,,,,,,,,,,,,,,,,,,,,,,,32,32_1,inclusive_gender_reflexive,1,9,himself,Hugh was stretching by himself in the garden earlier.,Was Hugh in the attic?,no,0,Hugh,was,stretching,by,himself,in,the,garden,earlier.,inc_j_beg_04,001,2023-07-20_08h38.10.752,spr_english_2023_list1,2021.1.1,Win32,59.99520038,,,space,0.5153,space,0.4987,space,0.4529,space,0.4724,space,0.6063,space,0.2604,space,0.3086,space,0.3575,space,0.3558,n,0,2.0946,0,23,23,23,1,,
,,,,,,,,,,,,,,,,,,,,,,,,,,,,,44,44_2,inclusive_gender_they,1,9,they,Alice is hopeful because they had good luck yesterday.,Is Alice sad?,no,0,Alice,is,hopeful,because,they,had,good,luck,yesterday.,inc_j_beg_04,001,2023-07-20_08h38.10.752,spr_english_2023_list1,2021.1.1,Win32,59.99520038,,,space,0.7395,space,0.3394,space,0.3254,space,0.4038,space,0.3058,space,0.2556,space,0.2136,space,0.1931,space,0.3933,n,0,1.5291,0,24,24,24,1,,
,,,,,,,,,,,,,,,,,,,,,,,,,,,,,3,3_1,neutral_gender_someone,1,9,masculine,Someone hit me but he ran before I reacted,Was there physical violence?,yes,1,Someone,hit,me,but,he,ran,before,I,reacted.,inc_j_beg_04,001,2023-07-20_08h38.10.752,spr_english_2023_list1,2021.1.1,Win32,59.99520038,,,space,0.7398,space,0.3258,space,0.2856,space,0.5227,space,0.4228,space,0.4558,space,0.2819,space,0.4374,space,0.309,y,0,3.8229,0,25,25,25,1,,
,,,,,,,,,,,,,,,,,,,,,,,,,,,,,39,39_1,inclusive_gender_they,1,9,she,Judy is confused because she lost the map ealier.,Did Judy lose something?,yes,1,Judy,is,confused,because,she,lost,the,map,ealier.,inc_j_beg_04,001,2023-07-20_08h38.10.752,spr_english_2023_list1,2021.1.1,Win32,59.99520038,,,space,0.921,space,0.5772,space,0.1394,space,0.2105,space,0.509,space,0.256,space,0.5058,space,0.3059,space,0.3107,y,0,1.5714,0,26,26,26,1,,
,,,,,,,,,,,,,,,,,,,,,,,,,,,,,18,18_1,inclusive_gender_reflexive,1,9,himself,Luke was reading by himself on the couch earlier.,Was Luke painting?,no,0,Luke,was,reading,by,himself,on,the,couch,earlier.,inc_j_beg_04,001,2023-07-20_08h38.10.752,spr_english_2023_list1,2021.1.1,Win32,59.99520038,,,space,0.642,space,0.1964,space,0.323,space,0.21,space,0.2895,space,0.5431,space,0.2283,space,0.3429,space,0.2893,n,0,1.3565,0,27,27,27,1,,
,,,,,,,,,,,,,,,,,,,,,,,,,,,,,14,14_2,neutral_gender_someone,1,9,neutral,Someone photographed me but they quit before I spoke.,Did someone take pictures?,yes,0,Someone,photographed,me,but,they,quit,before,I,spoke.,inc_j_beg_04,001,2023-07-20_08h38.10.752,spr_english_2023_list1,2021.1.1,Win32,59.99520038,,,space,0.493,space,0.2714,space,0.5103,space,0.3254,space,0.3231,space,0.4455,space,0.3877,space,0.4402,space,0.2591,y,0,2.0476,0,28,28,28,1,,
,,,,,,,,,,,,,,,,,,,,,,,,,,,,,30,30_1,inclusive_gender_reflexive,1,9,himself,Scott was drinking by himself at the bar earlier.,Was Scott at his apartment?,no,0,Scott,was,drinking,by,himself,at,the,bar,earlier.,inc_j_beg_04,001,2023-07-20_08h38.10.752,spr_english_2023_list1,2021.1.1,Win32,59.99520038,,,space,0.5523,space,0.3425,space,0.2725,space,0.3407,space,0.4058,space,0.3486,space,0.2937,space,0.3078,space,0.6225,y,0,4.3088,0,29,29,29,1,,
,,,,,,,,,,,,,,,,,,,,,,,,,,,,,53,NA,filler,1and2,9,NA,"Waves crashed against the shore, creating a soothing rhythm.",Was the rhythm violent?,,0,Waves,crashed,against,the,"shore,",creating,a,soothing,rhythm.,inc_j_beg_04,001,2023-07-20_08h38.10.752,spr_english_2023_list1,2021.1.1,Win32,59.99520038,,,space,11.6572,space,0.6401,space,0.3222,space,0.3622,space,0.2643,space,0.477,space,0.4055,space,0.2911,space,0.3727,n,0,2.2788,0,30,30,30,1,,
,,,,,,,,,,,,,,,,,,,,,,,,,,,,,28,28_1,inclusive_gender_reflexive,1,9,himself,Tom was swimming by himself at the beach earlier.,Was Tom at the park?,no,0,Tom,was,swimming,by,himself,at,the,beach,earlier.,inc_j_beg_04,001,2023-07-20_08h38.10.752,spr_english_2023_list1,2021.1.1,Win32,59.99520038,,,space,0.5185,space,0.2128,space,0.1889,space,0.489,space,0.44,space,0.2319,space,0.3047,space,0.1928,space,0.2725,n,0,1.6109,0,31,31,31,1,,
,,,,,,,,,,,,,,,,,,,,,,,,,,,,,46,46_2,inclusive_gender_they,1,9,they,Kate is tipsy because they had two drinks earlier.,Is Kate sober?,no,0,Kate,is,tipsy,because,they,had,two,drinks,earlier.,inc_j_beg_04,001,2023-07-20_08h38.10.752,spr_english_2023_list1,2021.1.1,Win32,59.99520038,,,space,0.3762,space,0.3065,space,0.3213,space,0.209,space,0.457,space,0.2313,space,0.3044,space,0.2951,space,0.3271,n,0,2.9553,0,32,32,32,1,,
,,,,,,,,,,,,,,,,,,,,,,,,,,,,,35,35_1,inclusive_gender_they,1,9,she,Susan is joyful because she won the lottery yesterday.,Is Susan in a good mood?,yes,1,Susan,is,joyful,because,she,won,the,lottery,yesterday.,inc_j_beg_04,001,2023-07-20_08h38.10.752,spr_english_2023_list1,2021.1.1,Win32,59.99520038,,,space,0.6538,space,0.3928,space,0.2078,space,0.3583,space,0.2116,space,0.3785,space,0.255,space,0.4228,space,0.3727,y,0,1.9728,0,33,33,33,1,,
,,,,,,,,,,,,,,,,,,,,,,,,,,,,,24,24_1,inclusive_gender_reflexive,1,9,himself,Jake was strolling by himself at the park earlier.,Was Jake swimming?,no,0,Jake,was,strolling,by,himself,at,the,park,earlier.,inc_j_beg_04,001,2023-07-20_08h38.10.752,spr_english_2023_list1,2021.1.1,Win32,59.99520038,,,space,1.0557,space,0.4106,space,0.1867,space,0.4233,space,0.3393,space,0.355,space,0.3262,space,0.4115,space,0.3924,n,0,1.7275,0,34,34,34,1,,
,,,,,,,,,,,,,,,,,,,,,,,,,,,,,52,NA,filler,1and2,9,NA,"I awaited eagerly, anticipating the arrival of the morning.",Was the person waiting for something?,,1,I,awaited,"eagerly,",anticipating,the,arrival,of,the,morning.,inc_j_beg_04,001,2023-07-20_08h38.10.752,spr_english_2023_list1,2021.1.1,Win32,59.99520038,,,space,0.497,space,0.2928,space,0.2102,space,0.4972,space,0.3734,space,0.2226,space,0.5398,space,0.424,space,0.2769,y,0,2.5927,0,35,35,35,1,,
,,,,,,,,,,,,,,,,,,,,,,,,,,,,,27,27_2,inclusive_gender_reflexive,1,9,themself,Paul was drawing by themself in the attic yesterday.,Was Paul drawing?,yes,1,Paul,was,drawing,by,themself,in,the,attic,yesterday.,inc_j_beg_04,001,2023-07-20_08h38.10.752,spr_english_2023_list1,2021.1.1,Win32,59.99520038,,,space,0.4546,space,0.4133,space,0.3052,space,0.311,space,0.292,space,0.2393,space,0.2223,space,0.3231,space,0.4382,n,0,1.6894,0,36,36,36,1,,
,,,,,,,,,,,,,,,,,,,,,,,,,,,,,57,NA,filler,1and2,9,NA,"The child's laughter echoed, bringing joy to the playground.",Was the child happy?,,1,The,child's,laughter,"echoed,",bringing,joy,to,the,playground.,inc_j_beg_04,001,2023-07-20_08h38.10.752,spr_english_2023_list1,2021.1.1,Win32,59.99520038,,,space,0.4544,space,0.189,space,0.2061,space,0.189,space,0.5887,space,0.2062,space,0.3644,space,0.2691,space,0.4729,y,0,2.1392,0,37,37,37,1,,
,,,,,,,,,,,,,,,,,,,,,,,,,,,,,45,45_1,inclusive_gender_they,1,9,she,Patricia is upset because she missed the bus earlier.,Is Patricia in a bad mood?,yes,1,Patricia,is,upset,because,she,missed,the,bus,earlier.,inc_j_beg_04,001,2023-07-20_08h38.10.752,spr_english_2023_list1,2021.1.1,Win32,59.99520038,,,space,0.6544,space,0.1718,space,0.2722,space,0.2566,space,0.309,space,0.2423,space,0.2429,space,0.2237,space,0.3782,n,0,2.7071,0,38,38,38,1,,
,,,,,,,,,,,,,,,,,,,,,,,,,,,,,43,43_1,inclusive_gender_they,1,9,she,Rose is content because she won an award earlier.,Is Rose happy?,yes,1,Rose,is,content,because,she,won,an,award,earlier.,inc_j_beg_04,001,2023-07-20_08h38.10.752,spr_english_2023_list1,2021.1.1,Win32,59.99520038,,,space,0.6882,space,0.3423,space,0.1928,space,0.3531,space,0.3257,space,0.2722,space,0.3218,space,0.4083,space,0.3293,y,0,1.4718,0,39,39,39,1,,
,,,,,,,,,,,,,,,,,,,,,,,,,,,,,29,29_2,inclusive_gender_reflexive,1,9,themself,Kyle was cycling by themself on the trail yesterday.,Was Kyle on the trail?,yes,1,Kyle,was,cycling,by,themself,on,the,trail,yesterday.,inc_j_beg_04,001,2023-07-20_08h38.10.752,spr_english_2023_list1,2021.1.1,Win32,59.99520038,,,space,0.5582,space,0.2268,space,0.2266,space,0.3633,space,0.2928,space,0.3381,space,0.2438,space,0.3724,space,0.3927,y,0,3.1787,0,40,40,40,1,,
,,,,,,,,,,,,,,,,,,,,,,,,,,,,,47,47_1,inclusive_gender_they,1,9,she,Jane is happy because she won the game earlier.,Did Jane win something?,yes,1,Jane,is,happy,because,she,won,the,game,earlier.,inc_j_beg_04,001,2023-07-20_08h38.10.752,spr_english_2023_list1,2021.1.1,Win32,59.99520038,,,space,4.9565,space,0.3404,space,0.3434,space,0.4276,space,0.4747,space,0.4393,space,0.2758,space,0.2896,space,0.2399,y,0,2.6726,0,41,41,41,1,,
,,,,,,,,,,,,,,,,,,,,,,,,,,,,,2,2_2,neutral_gender_someone,1,9,neutral,Someone warned me and they helped before I fell.,Did everybody maintain stability?,no,0,Someone,warned,me,and,they,helped,before,I,fell.,inc_j_beg_04,001,2023-07-20_08h38.10.752,spr_english_2023_list1,2021.1.1,Win32,59.99520038,,,space,0.5208,space,0.1731,space,0.2431,space,0.2405,space,0.2377,space,0.1951,space,0.2108,space,0.2102,space,0.4919,n,0,2.5061,0,42,42,42,1,,
,,,,,,,,,,,,,,,,,,,,,,,,,,,,,41,41_1,inclusive_gender_they,1,9,she,Laura is happy because she passed the exam earlier.,Is Laura in a good mood?,yes,1,Laura,is,happy,because,she,passed,the,exam,earlier.,inc_j_beg_04,001,2023-07-20_08h38.10.752,spr_english_2023_list1,2021.1.1,Win32,59.99520038,,,space,0.5269,space,0.3545,space,0.2393,space,0.4266,space,0.1929,space,0.2218,space,0.2083,space,0.2075,space,0.2229,y,0,19.3769,0,43,43,43,1,,
,,,,,,,,,,,,,,,,,,,,,,,,,,,,,58,NA,filler,1and2,9,NA,"Scent of flowers wafted, enchanting with its delicate fragrance.",Did the flowers smell bad?,,0,Scent,of,flowers,"wafted,",enchanting,with,its,delicate,fragrance.,inc_j_beg_04,001,2023-07-20_08h38.10.752,spr_english_2023_list1,2021.1.1,Win32,59.99520038,,,space,0.8006,space,0.2053,space,0.2068,space,0.158,space,0.2224,space,0.1742,space,0.1874,space,0.2222,space,0.1894,y,0,1.3868,0,44,44,44,1,,
,,,,,,,,,,,,,,,,,,,,,,,,,,,,,42,42_2,inclusive_gender_they,1,9,they,Nancy is upset because they fell on stage yesterday.,Is Nancy calm?,no,0,Nancy,is,upset,because,they,fell,on,stage,yesterday.,inc_j_beg_04,001,2023-07-20_08h38.10.752,spr_english_2023_list1,2021.1.1,Win32,59.99520038,,,space,0.5979,space,0.2102,space,0.2096,space,0.2421,space,0.1722,space,0.2062,space,0.1919,space,0.2061,space,0.4742,y,0,1.7392,0,45,45,45,1,,
,,,,,,,,,,,,,,,,,,,,,,,,,,,,,48,48_2,inclusive_gender_they,1,9,they,Martha is tired because they read two novels earlier.,Does Martha have a lot of energy?,no,0,Martha,is,tired,because,they,read,two,novels,earlier.,inc_j_beg_04,001,2023-07-20_08h38.10.752,spr_english_2023_list1,2021.1.1,Win32,59.99520038,,,space,0.7909,space,0.1936,space,0.2225,space,0.2914,space,0.3135,space,0.3227,space,0.3418,space,0.3063,space,0.4094,n,0,4.1107,0,46,46,46,1,,
,,,,,,,,,,,,,,,,,,,,,,,,,,,,,15,15_1,neutral_gender_someone,1,9,masculine,Someone pranked me but he ran before I reacted.,Was a joke mentioned?,yes,1,Someone,pranked,me,but,he,ran,before,I,reacted.,inc_j_beg_04,001,2023-07-20_08h38.10.752,spr_english_2023_list1,2021.1.1,Win32,59.99520038,,,space,0.7084,space,0.4936,space,0.2388,space,0.176,space,0.1895,space,0.1929,space,0.258,space,0.7057,space,0.2261,y,0,2.327,0,47,47,47,1,,
,,,,,,,,,,,,,,,,,,,,,,,,,,,,,6,6_2,neutral_gender_someone,1,9,neutral,Someone kissed me and they smiled before I blushed.,Did someone steal a pencil?,no,0,Someone,kissed,me,and,they,smiled,before,I,blushed.,inc_j_beg_04,001,2023-07-20_08h38.10.752,spr_english_2023_list1,2021.1.1,Win32,59.99520038,,,space,0.6237,space,0.2091,space,0.2611,space,0.2863,space,0.2221,space,0.1594,space,0.4448,space,0.262,space,0.3093,n,0,5.4907,0,48,48,48,1,,
,,,,,,,,,,,,,,,,,,,,,,,,,,,,,49,NA,filler,1and2,9,NA,"The sun behind distant mountains, painting the nice sky.",Was the sun showing?,,1,The,sun,behind,distant,"mountains,",painting,the,nice,sky.,inc_j_beg_04,001,2023-07-20_08h38.10.752,spr_english_2023_list1,2021.1.1,Win32,59.99520038,,,space,0.4715,space,0.5389,space,0.2065,space,0.2405,space,0.2272,space,0.2226,space,0.243,space,0.3269,space,0.2214,y,0,2.9054,0,49,49,49,1,,
,,,,,,,,,,,,,,,,,,,,,,,,,,,,,38,38_2,inclusive_gender_they,1,9,they,Ruth is angry because they lost the job yesterday.,Is Ruth peaceful?,no,0,Ruth,is,angry,because,they,lost,the,job,yesterday.,inc_j_beg_04,001,2023-07-20_08h38.10.752,spr_english_2023_list1,2021.1.1,Win32,59.99520038,,,space,4.222,space,0.344,space,0.2591,space,0.3477,space,0.3535,space,0.3561,space,0.3465,space,0.3159,space,0.4397,y,0,2.5717,0,50,50,50,1,,
,,,,,,,,,,,,,,,,,,,,,,,,,,,,,5,5_1,neutral_gender_someone,1,9,masculine,Someone robbed me but he fled before I screamed.,Did a theft occur?,yes,1,Someone,robbed,me,but,he,fled,before,I,screamed.,inc_j_beg_04,001,2023-07-20_08h38.10.752,spr_english_2023_list1,2021.1.1,Win32,59.99520038,,,space,1.1031,space,0.2424,space,0.3222,space,0.3934,space,0.3056,space,0.26,space,0.2565,space,0.4246,space,0.2898,n,0,3.5902,0,51,51,51,1,,
,,,,,,,,,,,,,,,,,,,,,,,,,,,,,59,NA,filler,1and2,9,NA,"Colorful balloons floated away, disappearing into the infinite sky.",Did the balloons have many colors?,,1,Colorful,balloons,floated,"away,",disappearing,into,the,infinite,sky.,inc_j_beg_04,001,2023-07-20_08h38.10.752,spr_english_2023_list1,2021.1.1,Win32,59.99520038,,,space,1.2238,space,0.4035,space,0.189,space,0.3054,space,0.2298,space,0.3025,space,0.2224,space,0.306,space,0.5142,y,0,2.2874,0,52,52,52,1,,
,,,,,,,,,,,,,,,,,,,,,,,,,,,,,13,13_1,neutral_gender_someone,1,9,masculine,Someone filmed me but he stopped after I objected.,Did the person use a technological device?,yes,1,Someone,filmed,me,but,he,stopped,after,I,objected.,inc_j_beg_04,001,2023-07-20_08h38.10.752,spr_english_2023_list1,2021.1.1,Win32,59.99520038,,,space,0.8045,space,0.227,space,0.273,space,0.2934,space,0.2889,space,0.2295,space,0.2263,space,0.24,space,0.2051,n,0,3.4638,0,53,53,53,1,,
,,,,,,,,,,,,,,,,,,,,,,,,,,,,,40,40_2,inclusive_gender_they,1,9,they,Clara is relieved because they got a promotion yesterday.,Does Clara feel bad?,no,0,Clara,is,relieved,because,they,got,a,promotion,yesterday.,inc_j_beg_04,001,2023-07-20_08h38.10.752,spr_english_2023_list1,2021.1.1,Win32,59.99520038,,,space,0.5538,space,0.2222,space,0.2056,space,0.3783,space,0.2768,space,0.3055,space,0.2766,space,0.2426,space,0.3343,n,0,3.6564,0,54,54,54,1,,
,,,,,,,,,,,,,,,,,,,,,,,,,,,,,25,25_2,inclusive_gender_reflexive,1,9,themself,Blake was fishing by themself at the riverbank yesterday.,Was Blake fishing?,yes,1,Blake,was,fishing,by,themself,at,the,riverbank,yesterday.,inc_j_beg_04,001,2023-07-20_08h38.10.752,spr_english_2023_list1,2021.1.1,Win32,59.99520038,,,space,0.504,space,0.289,space,0.2266,space,0.332,space,0.2665,space,0.3058,space,0.2432,space,0.2752,space,0.2584,y,0,1.4925,0,55,55,55,1,,
,,,,,,,,,,,,,,,,,,,,,,,,,,,,,51,NA,filler,1and2,9,NA,"The old oak tree stood tall, casting shade below.",Was a big plant mentioned? ,,1,The,old,oak,tree,stood,"tall,",casting,shade,below.,inc_j_beg_04,001,2023-07-20_08h38.10.752,spr_english_2023_list1,2021.1.1,Win32,59.99520038,,,space,7.1239,space,0.1759,space,0.1927,space,0.2059,space,0.2109,space,0.6164,space,0.1895,space,0.2161,space,0.9031,y,0,2.3436,0,56,56,56,1,,
,,,,,,,,,,,,,,,,,,,,,,,,,,,,,26,26_1,inclusive_gender_reflexive,1,9,himself,Mark was walking by himself in the park earlier.,Was Mark in the living room?,no,0,Mark,was,walking,by,himself,in,the,park,earlier.,inc_j_beg_04,001,2023-07-20_08h38.10.752,spr_english_2023_list1,2021.1.1,Win32,59.99520038,,,space,1.6889,space,0.1562,space,0.1476,space,0.13,space,0.1299,space,0.1731,space,0.3891,space,0.1752,space,0.1836,y,0,2.4123,0,57,57,57,1,,
,,,,,,,,,,,,,,,,,,,,,,,,,,,,,17,17_2,inclusive_gender_reflexive,1,9,themself,John was sitting by themself on the bench yesterday.,Was John on a bench?,yes,1,John,was,sitting,by,themself,on,the,bench,yesterday.,inc_j_beg_04,001,2023-07-20_08h38.10.752,spr_english_2023_list1,2021.1.1,Win32,59.99520038,,,space,0.6929,space,0.2593,space,0.19,space,0.2248,space,0.3563,space,0.3593,space,0.2598,space,0.2105,space,0.2216,y,0,6.3591,0,58,58,58,1,,
,,,,,,,,,,,,,,,,,,,,,,,,,,,,,8,8_2,neutral_gender_someone,1,9,neutral,Someone serenaded me and they stopped before I applauded.,Did the person dance?,no,0,Someone,serenaded,me,and,they,stopped,before,I,applauded.,inc_j_beg_04,001,2023-07-20_08h38.10.752,spr_english_2023_list1,2021.1.1,Win32,59.99520038,,,space,0.9536,space,0.2382,space,0.3731,space,0.4402,space,0.3258,space,0.393,space,0.5172,space,0.4245,space,0.3225,n,0,9.86,0,59,59,59,1,,
,,,,,,,,,,,,,,,,,,,,,,,,,,,,,,,,,,,,,,,,,,,,,,,,inc_j_beg_04,001,2023-07-20_08h38.10.752,spr_english_2023_list1,2021.1.1,Win32,59.99520038,,,,,,,,,,,,,,,,,,,,,,,,,,,,,y,4.4277
