key_resp.keys,key_resp.rt,key_resp_2.keys,key_resp_2.rt,key_resp_3.keys,key_resp_3.rt,key_resp_4.keys,key_resp_4.rt,key_resp_5.keys,key_resp_5.rt,key_resp_6.keys,key_resp_6.rt,key_resp_7.keys,key_resp_7.rt,key_resp_8.keys,key_resp_8.rt,key_resp_9.keys,key_resp_9.rt,key_resp_10.keys,key_resp_10.rt,key_resp_11.keys,key_resp_11.rt,key_resp_15.keys,key_resp_15.rt,trials_2.thisRepN,trials_2.thisTrialN,trials_2.thisN,trials_2.thisIndex,trials_2.ran,base_sentence_number,version,experiment,list,numb_words,gender,sentence,question,answer,CorrAns,w1,w2,w3,w4,w5,w6,w7,w8,w9,participant,session,date,expName,psychopyVersion,OS,frameRate,key_resp_16.keys,key_resp_16.rt,word1.keys,word1.rt,word2.keys,word2.rt,word3.keys,word3.rt,word4.keys,word4.rt,word5.keys,word5.rt,word6.keys,word6.rt,word7.keys,word7.rt,word8.keys,word8.rt,word9.keys,word9.rt,compquestion.keys,compquestion.corr,compquestion.rt,trials.thisRepN,trials.thisTrialN,trials.thisN,trials.thisIndex,trials.ran,endoftask.keys,endoftask.rt
space,11.2517,y,7.1079,space,1.3458,space,0.7187,space,0.7188,space,0.4713,space,0.5035,space,0.4514,space,0.4912,space,0.4382,space,0.47,n,5.6422,0,0,0,0,1,NA,NA,practica,NA,NA,NA,Rita is uncomfortable because it is very hot outside.,Is it cold?,no,0,Rita,is,uncomfortable,because,it,is,very,hot,outside.,INC_J_BEG_016,001,2023-07-20_08h52.05.954,spr_english_2023_list2,2021.1.1,Win32,60.12144532,,,,,,,,,,,,,,,,,,,,,,,,,,,,,,
,,,,space,0.9234,space,0.4068,space,0.3885,space,0.4477,space,0.4083,space,0.4435,space,0.4479,space,0.3968,space,0.4318,n,2.7899,0,1,1,1,1,NA,NA,practica,NA,NA,NA,Peter was running by himself in the park yesterday.,Was Peter painting the wall?,no,0,Peter,was,running,by,himself,in,the,park,yesterday.,INC_J_BEG_016,001,2023-07-20_08h52.05.954,spr_english_2023_list2,2021.1.1,Win32,60.12144532,,,,,,,,,,,,,,,,,,,,,,,,,,,,,,
,,,,space,0.6459,space,0.3934,space,0.4245,space,0.3981,space,0.4153,space,0.6432,space,0.4978,space,0.4408,space,0.4493,y,4.5005,0,2,2,2,1,NA,NA,practica,NA,NA,NA,Hannah is watching tv because she is really bored.,Is Hannah in front of a screen?,yes,1,Hannah,is,watching,tv,because,she,is,really,bored.,INC_J_BEG_016,001,2023-07-20_08h52.05.954,spr_english_2023_list2,2021.1.1,Win32,60.12144532,,,,,,,,,,,,,,,,,,,,,,,,,,,,,,
,,,,,,,,,,,,,,,,,,,,,,,,,,,,,1,1_2,neutral_gender_someone,2,9,neutral,Someone called me but they stopped before I answered,Did the person try to communicate?,yes,1,Someone,called,me,but,they,stopped,before,I,answered.,INC_J_BEG_016,001,2023-07-20_08h52.05.954,spr_english_2023_list2,2021.1.1,Win32,60.12144532,space,7.9796,space,0.831,space,0.4906,space,0.4811,space,0.4333,space,0.4516,space,0.4487,space,0.3851,space,0.4537,space,0.524,n,0,4.7532,0,0,0,0,1,,
,,,,,,,,,,,,,,,,,,,,,,,,,,,,,34,34_1,inclusive_gender_they,2,9,she,Mary is sad because she lost the dog earlier.,Did mary lose something?,no,0,Mary,is,sad,because,she,lost,the,dog,earlier.,INC_J_BEG_016,001,2023-07-20_08h52.05.954,spr_english_2023_list2,2021.1.1,Win32,60.12144532,,,space,0.7503,space,0.4709,space,0.4266,space,0.4386,space,0.4765,space,0.4199,space,0.4073,space,0.4407,space,0.4986,y,0,3.1321,0,1,1,1,1,,
,,,,,,,,,,,,,,,,,,,,,,,,,,,,,31,31_1,inclusive_gender_reflexive,2,9,himself,Troy was singing by himself in the shower yesterday.,Was Troy singing?,yes,1,Troy,was,singing,by,himself,in,the,shower,yesterday.,INC_J_BEG_016,001,2023-07-20_08h52.05.954,spr_english_2023_list2,2021.1.1,Win32,60.12144532,,,space,0.6086,space,1.0013,space,1.2019,space,0.5917,space,0.462,space,0.417,space,0.4359,space,0.3927,space,0.4032,y,0,3.0847,0,2,2,2,1,,
,,,,,,,,,,,,,,,,,,,,,,,,,,,,,37,37_2,inclusive_gender_they,2,9,they,Emily is grateful because they got nice gifts yesterday.,Did Emily get presents?,yes,1,Emily,is,grateful,because,they,got,nice,gifts,yesterday.,INC_J_BEG_016,001,2023-07-20_08h52.05.954,spr_english_2023_list2,2021.1.1,Win32,60.12144532,,,space,0.4631,space,0.3206,space,0.466,space,0.349,space,0.3816,space,0.5828,space,0.4929,space,0.44,space,0.4475,y,0,2.1121,0,3,3,3,1,,
,,,,,,,,,,,,,,,,,,,,,,,,,,,,,55,NA,filler,1and2,9,NA,The aroma of freshly brewed coffee filled the room.,Was the smell nice?,,1,The,aroma,of,freshly,brewed,coffee,filled,the,room.,INC_J_BEG_016,001,2023-07-20_08h52.05.954,spr_english_2023_list2,2021.1.1,Win32,60.12144532,,,space,0.4159,space,0.3842,space,0.45,space,0.7532,space,0.6154,space,0.4579,space,0.9795,space,0.5797,space,1.2468,y,0,3.3772,0,4,4,4,1,,
,,,,,,,,,,,,,,,,,,,,,,,,,,,,,30,30_2,inclusive_gender_reflexive,2,9,themself,Scott was drinking by themself at the bar earlier.,Was Scott at his apartment?,no,0,Scott,was,drinking,by,themself,at,the,bar,earlier.,INC_J_BEG_016,001,2023-07-20_08h52.05.954,spr_english_2023_list2,2021.1.1,Win32,60.12144532,,,space,0.4858,space,0.5588,space,2.7873,space,0.5181,space,1.6819,space,0.8142,space,0.7068,space,1.2357,space,0.4528,n,0,8.0517,0,5,5,5,1,,
,,,,,,,,,,,,,,,,,,,,,,,,,,,,,14,14_1,neutral_gender_someone,2,9,masculine,Someone photographed me but he quit before I spoke.,Did someone take pictures?,yes,0,Someone,photographed,me,but,he,quit,before,I,spoke.,INC_J_BEG_016,001,2023-07-20_08h52.05.954,spr_english_2023_list2,2021.1.1,Win32,60.12144532,,,space,1.2024,space,0.7757,space,0.6148,space,0.4483,space,0.4571,space,0.4849,space,0.5004,space,0.439,space,0.4907,y,0,2.5283,0,6,6,6,1,,
,,,,,,,,,,,,,,,,,,,,,,,,,,,,,28,28_2,inclusive_gender_reflexive,2,9,themself,Tom was swimming by themself at the beach earlier.,Was Tom at the park?,no,0,Tom,was,swimming,by,themself,at,the,beach,earlier.,INC_J_BEG_016,001,2023-07-20_08h52.05.954,spr_english_2023_list2,2021.1.1,Win32,60.12144532,,,space,0.7556,space,0.6777,space,2.1835,space,0.4419,space,0.3942,space,0.4005,space,0.3483,space,0.421,space,0.3975,n,0,1.9178,0,7,7,7,1,,
,,,,,,,,,,,,,,,,,,,,,,,,,,,,,49,NA,filler,1and2,9,NA,"The sun behind distant mountains, painting the nice sky.",Was the sun showing?,,1,The,sun,behind,distant,"mountains,",painting,the,nice,sky.,INC_J_BEG_016,001,2023-07-20_08h52.05.954,spr_english_2023_list2,2021.1.1,Win32,60.12144532,,,space,0.3724,space,0.7485,space,0.704,space,1.0093,space,1.682,space,0.5671,space,0.4851,space,0.4747,space,0.6922,y,0,5.8097,0,8,8,8,1,,
,,,,,,,,,,,,,,,,,,,,,,,,,,,,,38,38_1,inclusive_gender_they,2,9,she,Ruth is angry because she lost the job yesterday.,Is Ruth peaceful?,no,0,Ruth,is,angry,because,she,lost,the,job,yesterday.,INC_J_BEG_016,001,2023-07-20_08h52.05.954,spr_english_2023_list2,2021.1.1,Win32,60.12144532,,,space,0.6239,space,0.4256,space,0.4534,space,0.4397,space,0.4685,space,0.5657,space,0.5674,space,0.8651,space,0.3545,n,0,1.8317,0,9,9,9,1,,
,,,,,,,,,,,,,,,,,,,,,,,,,,,,,19,19_1,inclusive_gender_reflexive,2,9,himself,James was studying by himself in the library yesterday.,Was James at the library?,yes,1,James,was,studying,by,himself,in,the,library,yesterday.,INC_J_BEG_016,001,2023-07-20_08h52.05.954,spr_english_2023_list2,2021.1.1,Win32,60.12144532,,,space,0.4953,space,0.8013,space,0.8255,space,1.3041,space,1.1521,space,0.4732,space,0.3507,space,0.365,space,0.4175,y,0,4.6598,0,10,10,10,1,,
,,,,,,,,,,,,,,,,,,,,,,,,,,,,,8,8_1,neutral_gender_someone,2,9,masculine,Someone serenaded me and he stopped before I applauded.,Did the person dance?,no,0,Someone,serenaded,me,and,he,stopped,before,I,applauded.,INC_J_BEG_016,001,2023-07-20_08h52.05.954,spr_english_2023_list2,2021.1.1,Win32,60.12144532,,,space,0.4158,space,2.3245,space,1.6974,space,2.2706,space,1.2608,space,0.7017,space,0.6197,space,0.4705,space,0.3927,n,0,3.2644,0,11,11,11,1,,
,,,,,,,,,,,,,,,,,,,,,,,,,,,,,32,32_2,inclusive_gender_reflexive,2,9,themself,Hugh was stretching by themself in the garden earlier.,Was Hugh in the attic?,no,0,Hugh,was,stretching,by,themself,in,the,garden,earlier.,INC_J_BEG_016,001,2023-07-20_08h52.05.954,spr_english_2023_list2,2021.1.1,Win32,60.12144532,,,space,0.5288,space,0.4167,space,0.8511,space,0.4814,space,0.632,space,0.5067,space,0.5815,space,1.753,space,0.65,n,0,2.9678,0,12,12,12,1,,
,,,,,,,,,,,,,,,,,,,,,,,,,,,,,58,NA,filler,1and2,9,NA,"Scent of flowers wafted, enchanting with its delicate fragrance.",Did the flowers smell bad?,,0,Scent,of,flowers,"wafted,",enchanting,with,its,delicate,fragrance.,INC_J_BEG_016,001,2023-07-20_08h52.05.954,spr_english_2023_list2,2021.1.1,Win32,60.12144532,,,space,0.4902,space,0.4308,space,0.4657,space,0.3651,space,1.288,space,0.5495,space,0.4444,space,0.6055,space,0.5525,n,0,2.2577,0,13,13,13,1,,
,,,,,,,,,,,,,,,,,,,,,,,,,,,,,17,17_1,inclusive_gender_reflexive,2,9,himself,John was sitting by himself on the bench yesterday.,Was John on a bench?,yes,1,John,was,sitting,by,himself,on,the,bench,yesterday.,INC_J_BEG_016,001,2023-07-20_08h52.05.954,spr_english_2023_list2,2021.1.1,Win32,60.12144532,,,space,0.7128,space,0.3589,space,0.5013,space,0.4915,space,0.7286,space,0.4739,space,0.4984,space,1.3537,space,0.5339,y,0,2.1351,0,14,14,14,1,,
,,,,,,,,,,,,,,,,,,,,,,,,,,,,,5,5_2,neutral_gender_someone,2,9,neutral,Someone robbed me but they fled before I screamed.,Did a theft occur?,yes,1,Someone,robbed,me,but,they,fled,before,I,screamed.,INC_J_BEG_016,001,2023-07-20_08h52.05.954,spr_english_2023_list2,2021.1.1,Win32,60.12144532,,,space,0.4829,space,0.4024,space,0.4008,space,0.4863,space,0.6161,space,0.6277,space,0.4579,space,0.4737,space,0.6193,y,0,3.5608,0,15,15,15,1,,
,,,,,,,,,,,,,,,,,,,,,,,,,,,,,7,7_2,neutral_gender_someone,2,9,neutral,Someone threatened me but they ran before I reacted.,Was there a threat?,yes,1,Someone,threatened,me,but,they,ran,before,I,reacted.,INC_J_BEG_016,001,2023-07-20_08h52.05.954,spr_english_2023_list2,2021.1.1,Win32,60.12144532,,,space,0.4886,space,0.7133,space,0.5351,space,0.6424,space,0.489,space,0.5104,space,0.7464,space,0.5921,space,1.7666,y,0,2.0973,0,16,16,16,1,,
,,,,,,,,,,,,,,,,,,,,,,,,,,,,,26,26_2,inclusive_gender_reflexive,2,9,themself,Mark was walking by themself in the park earlier.,Was Mark in the living room?,no,0,Mark,was,walking,by,themself,in,the,park,earlier.,INC_J_BEG_016,001,2023-07-20_08h52.05.954,spr_english_2023_list2,2021.1.1,Win32,60.12144532,,,space,0.6456,space,0.4316,space,0.5407,space,0.5925,space,0.5559,space,0.8866,space,0.4649,space,0.4933,space,0.5759,y,0,6.8207,0,17,17,17,1,,
,,,,,,,,,,,,,,,,,,,,,,,,,,,,,44,44_1,inclusive_gender_they,2,9,she,Alice is hopeful because she had good luck yesterday.,Is Alice sad?,no,0,Alice,is,hopeful,because,she,had,good,luck,yesterday.,INC_J_BEG_016,001,2023-07-20_08h52.05.954,spr_english_2023_list2,2021.1.1,Win32,60.12144532,,,space,0.4977,space,0.4483,space,0.4675,space,0.7237,space,0.6895,space,0.5678,space,0.5165,space,0.6044,space,1.5336,n,0,1.6014,0,18,18,18,1,,
,,,,,,,,,,,,,,,,,,,,,,,,,,,,,52,NA,filler,1and2,9,NA,"I awaited eagerly, anticipating the arrival of the morning.",Was the person waiting for something?,,1,I,awaited,"eagerly,",anticipating,the,arrival,of,the,morning.,INC_J_BEG_016,001,2023-07-20_08h52.05.954,spr_english_2023_list2,2021.1.1,Win32,60.12144532,,,space,0.3802,space,0.631,space,1.0361,space,0.6892,space,0.569,space,0.4885,space,0.4487,space,0.4436,space,0.417,y,0,3.6523,0,19,19,19,1,,
,,,,,,,,,,,,,,,,,,,,,,,,,,,,,27,27_1,inclusive_gender_reflexive,2,9,himself,Paul was drawing by himself in the attic yesterday.,Was Paul drawing?,yes,1,Paul,was,drawing,by,himself,in,the,attic,yesterday.,INC_J_BEG_016,001,2023-07-20_08h52.05.954,spr_english_2023_list2,2021.1.1,Win32,60.12144532,,,space,1.2617,space,0.4439,space,0.7316,space,0.503,space,0.5231,space,0.4839,space,0.4581,space,0.6009,space,0.4608,y,0,1.4779,0,20,20,20,1,,
,,,,,,,,,,,,,,,,,,,,,,,,,,,,,16,16_1,neutral_gender_someone,2,9,masculine,Someone passed me and he sped before I noticed.,Was everybody going slow?,no,0,Someone,passed,me,and,he,sped,before,I,noticed.,INC_J_BEG_016,001,2023-07-20_08h52.05.954,spr_english_2023_list2,2021.1.1,Win32,60.12144532,,,space,0.9673,space,1.8024,space,0.4059,space,0.4399,space,0.6223,space,0.6182,space,0.7603,space,0.6354,space,1.8252,y,0,8.2532,0,21,21,21,1,,
,,,,,,,,,,,,,,,,,,,,,,,,,,,,,53,NA,filler,1and2,9,NA,"Waves crashed against the shore, creating a soothing rhythm.",Was the rhythm violent?,,0,Waves,crashed,against,the,"shore,",creating,a,soothing,rhythm.,INC_J_BEG_016,001,2023-07-20_08h52.05.954,spr_english_2023_list2,2021.1.1,Win32,60.12144532,,,space,1.0487,space,1.84,space,0.556,space,0.361,space,0.3764,space,0.427,space,0.4389,space,0.6572,space,0.7494,y,0,7.8086,0,22,22,22,1,,
,,,,,,,,,,,,,,,,,,,,,,,,,,,,,42,42_1,inclusive_gender_they,2,9,she,Nancy is upset because she fell on stage yesterday.,Is Nancy calm?,no,0,Nancy,is,upset,because,she,fell,on,stage,yesterday.,INC_J_BEG_016,001,2023-07-20_08h52.05.954,spr_english_2023_list2,2021.1.1,Win32,60.12144532,,,space,3.5669,space,0.8214,space,0.74,space,1.0528,space,0.7985,space,0.5173,space,0.5412,space,0.7277,space,4.5075,n,0,4.9502,0,23,23,23,1,,
,,,,,,,,,,,,,,,,,,,,,,,,,,,,,4,4_1,neutral_gender_someone,2,9,masculine,Someone punched me but he ran before I noticed.,Was everybody involved peaceful?,no,0,Someone,punched,me,but,he,ran,before,I,noticed.,INC_J_BEG_016,001,2023-07-20_08h52.05.954,spr_english_2023_list2,2021.1.1,Win32,60.12144532,,,space,0.5909,space,0.6071,space,0.5077,space,0.7483,space,2.482,space,0.5494,space,0.7476,space,0.4365,space,0.6006,n,0,13.7865,0,24,24,24,1,,
,,,,,,,,,,,,,,,,,,,,,,,,,,,,,40,40_1,inclusive_gender_they,2,9,she,Clara is relieved because she got a promotion yesterday.,Does Clara feel bad?,no,0,Clara,is,relieved,because,she,got,a,promotion,yesterday.,INC_J_BEG_016,001,2023-07-20_08h52.05.954,spr_english_2023_list2,2021.1.1,Win32,60.12144532,,,space,0.8893,space,0.6173,space,0.7496,space,0.7539,space,0.7928,space,0.6022,space,0.6243,space,0.7176,space,1.3145,n,0,1.9888,0,25,25,25,1,,
,,,,,,,,,,,,,,,,,,,,,,,,,,,,,23,23_1,inclusive_gender_reflexive,2,9,himself,Ben was dancing by himself in the kitchen yesterday.,Was Ben in the kitchen?,yes,1,Ben,was,dancing,by,himself,in,the,kitchen,yesterday.,INC_J_BEG_016,001,2023-07-20_08h52.05.954,spr_english_2023_list2,2021.1.1,Win32,60.12144532,,,space,0.6959,space,0.804,space,0.6032,space,0.555,space,0.5097,space,0.5342,space,0.4541,space,0.5477,space,0.537,y,0,1.8184,0,26,26,26,1,,
,,,,,,,,,,,,,,,,,,,,,,,,,,,,,15,15_2,neutral_gender_someone,2,9,neutral,Someone pranked me but they ran before I reacted.,Was a joke mentioned?,yes,1,Someone,pranked,me,but,they,ran,before,I,reacted.,INC_J_BEG_016,001,2023-07-20_08h52.05.954,spr_english_2023_list2,2021.1.1,Win32,60.12144532,,,space,0.5643,space,1.2154,space,0.6381,space,1.0839,space,0.7075,space,1.0278,space,3.5502,space,0.5646,space,1.2401,n,0,3.3197,0,27,27,27,1,,
,,,,,,,,,,,,,,,,,,,,,,,,,,,,,3,3_2,neutral_gender_someone,2,9,neutral,Someone hit me but they ran before I reacted,Was there physical violence?,yes,1,Someone,hit,me,but,they,ran,before,I,reacted.,INC_J_BEG_016,001,2023-07-20_08h52.05.954,spr_english_2023_list2,2021.1.1,Win32,60.12144532,,,space,0.5007,space,0.5552,space,0.4402,space,0.514,space,0.5327,space,0.5207,space,0.4782,space,0.4779,space,0.9864,n,0,5.8762,0,28,28,28,1,,
,,,,,,,,,,,,,,,,,,,,,,,,,,,,,50,NA,filler,1and2,9,NA,"He smiled warmly, extending a hand in friendly greeting.",Did someone fall?,,0,He,smiled,"warmly,",extending,a,hand,in,friendly,greeting.,INC_J_BEG_016,001,2023-07-20_08h52.05.954,spr_english_2023_list2,2021.1.1,Win32,60.12144532,,,space,0.5052,space,0.6976,space,0.7702,space,0.7311,space,0.5181,space,0.6484,space,0.8481,space,1.2076,space,0.6484,n,0,1.9564,0,29,29,29,1,,
,,,,,,,,,,,,,,,,,,,,,,,,,,,,,41,41_2,inclusive_gender_they,2,9,they,Laura is happy because they passed the exam earlier.,Is Laura in a good mood?,yes,1,Laura,is,happy,because,they,passed,the,exam,earlier.,INC_J_BEG_016,001,2023-07-20_08h52.05.954,spr_english_2023_list2,2021.1.1,Win32,60.12144532,,,space,0.5797,space,0.515,space,0.5085,space,0.5383,space,0.5108,space,0.568,space,0.5611,space,1.8984,space,3.3164,y,0,2.2133,0,30,30,30,1,,
,,,,,,,,,,,,,,,,,,,,,,,,,,,,,54,NA,filler,1and2,9,NA,"She danced a lot, her movements resembling pure poetry.",Was it an unpleasant dance?,,0,She,danced,a,"lot,",her,movements,resembling,pure,poetry.,INC_J_BEG_016,001,2023-07-20_08h52.05.954,spr_english_2023_list2,2021.1.1,Win32,60.12144532,,,space,0.4328,space,0.626,space,0.6206,space,0.6066,space,0.5864,space,0.6365,space,0.7522,space,0.6702,space,1.0816,n,0,2.6412,0,31,31,31,1,,
,,,,,,,,,,,,,,,,,,,,,,,,,,,,,24,24_2,inclusive_gender_reflexive,2,9,themself,Jake was strolling by themself at the park earlier.,Was Jake swimming?,no,0,Jake,was,strolling,by,themself,at,the,park,earlier.,INC_J_BEG_016,001,2023-07-20_08h52.05.954,spr_english_2023_list2,2021.1.1,Win32,60.12144532,,,space,0.5198,space,0.532,space,0.994,space,1.1418,space,0.5667,space,0.5994,space,0.636,space,0.5775,space,0.759,n,0,2.1765,0,32,32,32,1,,
,,,,,,,,,,,,,,,,,,,,,,,,,,,,,46,46_1,inclusive_gender_they,2,9,she,Kate is tipsy because she had two drinks earlier.,Is Kate sober?,no,0,Kate,is,tipsy,because,she,had,two,drinks,earlier.,INC_J_BEG_016,001,2023-07-20_08h52.05.954,spr_english_2023_list2,2021.1.1,Win32,60.12144532,,,space,0.5152,space,0.486,space,1.0041,space,1.0251,space,0.5926,space,0.6813,space,0.5478,space,0.6313,space,0.5689,n,0,1.3991,0,33,33,33,1,,
,,,,,,,,,,,,,,,,,,,,,,,,,,,,,25,25_1,inclusive_gender_reflexive,2,9,himself,Blake was fishing by himself at the riverbank yesterday.,Was Blake fishing?,yes,1,Blake,was,fishing,by,himself,at,the,riverbank,yesterday.,INC_J_BEG_016,001,2023-07-20_08h52.05.954,spr_english_2023_list2,2021.1.1,Win32,60.12144532,,,space,0.5192,space,0.5921,space,0.8576,space,0.5375,space,0.7103,space,0.6327,space,0.7482,space,1.175,space,0.557,y,0,1.6247,0,34,34,34,1,,
,,,,,,,,,,,,,,,,,,,,,,,,,,,,,43,43_2,inclusive_gender_they,2,9,they,Rose is content because they won an award earlier.,Is Rose happy?,yes,1,Rose,is,content,because,they,won,an,award,earlier.,INC_J_BEG_016,001,2023-07-20_08h52.05.954,spr_english_2023_list2,2021.1.1,Win32,60.12144532,,,space,0.4396,space,0.4972,space,0.6164,space,0.8617,space,0.9043,space,1.6504,space,0.8652,space,0.8545,space,1.3517,y,0,1.3512,0,35,35,35,1,,
,,,,,,,,,,,,,,,,,,,,,,,,,,,,,51,NA,filler,1and2,9,NA,"The old oak tree stood tall, casting shade below.",Was a big plant mentioned? ,,1,The,old,oak,tree,stood,"tall,",casting,shade,below.,INC_J_BEG_016,001,2023-07-20_08h52.05.954,spr_english_2023_list2,2021.1.1,Win32,60.12144532,,,space,0.4389,space,0.5667,space,0.9479,space,0.7025,space,0.7099,space,0.5597,space,0.6835,space,0.765,space,0.8218,y,0,9.2555,0,36,36,36,1,,
,,,,,,,,,,,,,,,,,,,,,,,,,,,,,22,22_2,inclusive_gender_reflexive,2,9,themself,Max was painting by themself in the studio earlier.,Was Max watching tv?,no,0,Max,was,painting,by,themself,in,the,studio,earlier.,INC_J_BEG_016,001,2023-07-20_08h52.05.954,spr_english_2023_list2,2021.1.1,Win32,60.12144532,,,space,1.8232,space,0.616,space,0.6332,space,0.6419,space,0.871,space,0.6559,space,0.5376,space,0.6186,space,0.6085,n,0,1.774,0,37,37,37,1,,
,,,,,,,,,,,,,,,,,,,,,,,,,,,,,33,33_2,inclusive_gender_they,2,9,they,Sara is happy because they found new friends yesterday.,Is Sara in a good mood?,yes,1,Sara,is,happy,because,they,found,new,friends,yesterday.,INC_J_BEG_016,001,2023-07-20_08h52.05.954,spr_english_2023_list2,2021.1.1,Win32,60.12144532,,,space,0.5301,space,0.4931,space,0.523,space,0.5217,space,0.623,space,0.6449,space,0.6149,space,0.5977,space,0.7976,y,0,1.3083,0,38,38,38,1,,
,,,,,,,,,,,,,,,,,,,,,,,,,,,,,9,9_2,neutral_gender_someone,2,9,neutral,Someone helped me but they left before I finished.,Did the person offer some help?,yes,1,Someone,helped,me,but,they,left,before,I,finished.,INC_J_BEG_016,001,2023-07-20_08h52.05.954,spr_english_2023_list2,2021.1.1,Win32,60.12144532,,,space,0.5364,space,0.7384,space,0.5648,space,0.408,space,0.485,space,0.5043,space,0.5273,space,0.5167,space,0.4827,y,0,6.242,0,39,39,39,1,,
,,,,,,,,,,,,,,,,,,,,,,,,,,,,,10,10_1,neutral_gender_someone,2,9,masculine,Someone shushed me but he stopped before I noticed.,Was the person happy to hear a voice?,no,0,Someone,shushed,me,but,he,stopped,before,I,noticed.,INC_J_BEG_016,001,2023-07-20_08h52.05.954,spr_english_2023_list2,2021.1.1,Win32,60.12144532,,,space,0.5364,space,0.8043,space,0.5999,space,0.4284,space,0.4534,space,0.4891,space,0.5185,space,0.5011,space,1.5856,n,0,2.4114,0,40,40,40,1,,
,,,,,,,,,,,,,,,,,,,,,,,,,,,,,11,11_2,neutral_gender_someone,2,9,neutral,Someone pushed me but they tripped after I fell.,Was there any sort of physical violence?,yes,1,Someone,pushed,me,but,they,tripped,after,I,fell.,INC_J_BEG_016,001,2023-07-20_08h52.05.954,spr_english_2023_list2,2021.1.1,Win32,60.12144532,,,space,2.4786,space,0.615,space,0.4978,space,0.7012,space,0.6184,space,1.2064,space,0.8312,space,0.513,space,0.4395,y,0,1.9034,0,41,41,41,1,,
,,,,,,,,,,,,,,,,,,,,,,,,,,,,,39,39_2,inclusive_gender_they,2,9,they,Judy is confused because they lost the map ealier.,Did Judy lose something?,yes,1,Judy,is,confused,because,they,lost,the,map,ealier.,INC_J_BEG_016,001,2023-07-20_08h52.05.954,spr_english_2023_list2,2021.1.1,Win32,60.12144532,,,space,0.4554,space,0.4992,space,0.7493,space,0.933,space,0.5575,space,0.5475,space,0.5147,space,0.7877,space,1.6098,y,0,3.3072,0,42,42,42,1,,
,,,,,,,,,,,,,,,,,,,,,,,,,,,,,57,NA,filler,1and2,9,NA,"The child's laughter echoed, bringing joy to the playground.",Was the child happy?,,1,The,child's,laughter,"echoed,",bringing,joy,to,the,playground.,INC_J_BEG_016,001,2023-07-20_08h52.05.954,spr_english_2023_list2,2021.1.1,Win32,60.12144532,,,space,0.4537,space,0.543,space,0.5162,space,0.6885,space,0.608,space,0.5979,space,0.4265,space,0.3524,space,0.5853,y,0,1.3313,0,43,43,43,1,,
,,,,,,,,,,,,,,,,,,,,,,,,,,,,,21,21_1,inclusive_gender_reflexive,2,9,himself,Jack was cooking by himself in the kitchen yesterday.,Was Jack in the kitchen?,yes,1,Jack,was,cooking,by,himself,in,the,kitchen,yesterday.,INC_J_BEG_016,001,2023-07-20_08h52.05.954,spr_english_2023_list2,2021.1.1,Win32,60.12144532,,,space,0.5257,space,0.6502,space,0.6881,space,0.61,space,0.648,space,0.5765,space,0.7823,space,0.7315,space,0.7368,y,0,1.3592,0,44,44,44,1,,
,,,,,,,,,,,,,,,,,,,,,,,,,,,,,35,35_2,inclusive_gender_they,2,9,they,Susan is joyful because they won the lottery yesterday.,Is Susan in a good mood?,yes,1,Susan,is,joyful,because,they,won,the,lottery,yesterday.,INC_J_BEG_016,001,2023-07-20_08h52.05.954,spr_english_2023_list2,2021.1.1,Win32,60.12144532,,,space,0.4501,space,0.6171,space,0.6143,space,0.6483,space,0.6758,space,0.6327,space,0.552,space,0.6471,space,0.6399,y,0,1.4133,0,45,45,45,1,,
,,,,,,,,,,,,,,,,,,,,,,,,,,,,,36,36_1,inclusive_gender_they,2,9,she,Helen is anxious because she dread the presentation earlier.,Did Helen's presentation go well?,no,0,Helen,is,anxious,because,she,dread,the,presentation,earlier.,INC_J_BEG_016,001,2023-07-20_08h52.05.954,spr_english_2023_list2,2021.1.1,Win32,60.12144532,,,space,0.4919,space,1.634,space,0.6497,space,0.626,space,0.5816,space,0.6984,space,0.6545,space,1.1242,space,0.6035,n,0,5.2725,0,46,46,46,1,,
,,,,,,,,,,,,,,,,,,,,,,,,,,,,,56,NA,filler,1and2,9,NA,"They went on an exciting trip, embracing their destiny.",Did they stay home?,,0,They,went,on,an,exciting,"trip,",embracing,their,destiny.,INC_J_BEG_016,001,2023-07-20_08h52.05.954,spr_english_2023_list2,2021.1.1,Win32,60.12144532,,,space,0.4409,space,0.5819,space,1.9385,space,0.6719,space,1.239,space,1.6115,space,0.7178,space,0.526,space,0.5981,n,0,1.5302,0,47,47,47,1,,
,,,,,,,,,,,,,,,,,,,,,,,,,,,,,2,2_1,neutral_gender_someone,2,9,masculine,Someone warned me and he helped before I fell.,Did everybody maintain stability?,no,0,Someone,warned,me,and,he,helped,before,I,fell.,INC_J_BEG_016,001,2023-07-20_08h52.05.954,spr_english_2023_list2,2021.1.1,Win32,60.12144532,,,space,0.7003,space,0.9546,space,0.8095,space,0.5228,space,0.648,space,0.6002,space,0.5701,space,0.557,space,2.3012,y,0,3.6586,0,48,48,48,1,,
,,,,,,,,,,,,,,,,,,,,,,,,,,,,,45,45_2,inclusive_gender_they,2,9,they,Patricia is upset because they missed the bus earlier.,Is Patricia in a bad mood?,yes,1,Patricia,is,upset,because,they,missed,the,bus,earlier.,INC_J_BEG_016,001,2023-07-20_08h52.05.954,spr_english_2023_list2,2021.1.1,Win32,60.12144532,,,space,0.6434,space,0.5809,space,0.6857,space,0.5851,space,0.6083,space,0.6499,space,0.5814,space,0.7204,space,0.5644,y,0,2.2024,0,49,49,49,1,,
,,,,,,,,,,,,,,,,,,,,,,,,,,,,,29,29_1,inclusive_gender_reflexive,2,9,himself,Kyle was cycling by himself on the trail yesterday.,Was Kyle on the trail?,yes,1,Kyle,was,cycling,by,himself,on,the,trail,yesterday.,INC_J_BEG_016,001,2023-07-20_08h52.05.954,spr_english_2023_list2,2021.1.1,Win32,60.12144532,,,space,1.1005,space,0.8047,space,0.7709,space,0.7565,space,0.6842,space,0.8397,space,0.9289,space,1.1265,space,0.8481,y,0,1.9887,0,50,50,50,1,,
,,,,,,,,,,,,,,,,,,,,,,,,,,,,,59,NA,filler,1and2,9,NA,"Colorful balloons floated away, disappearing into the infinite sky.",Did the balloons have many colors?,,1,Colorful,balloons,floated,"away,",disappearing,into,the,infinite,sky.,INC_J_BEG_016,001,2023-07-20_08h52.05.954,spr_english_2023_list2,2021.1.1,Win32,60.12144532,,,space,0.9034,space,3.1493,space,0.9316,space,2.1753,space,1.0843,space,1.4334,space,0.6448,space,1.2946,space,0.5809,y,0,6.9804,0,51,51,51,1,,
,,,,,,,,,,,,,,,,,,,,,,,,,,,,,20,20_2,inclusive_gender_reflexive,2,9,themself,Mike was jogging by themself in the park earlier.,Was Mike sleeping?,no,0,Mike,was,jogging,by,themself,in,the,park,earlier.,INC_J_BEG_016,001,2023-07-20_08h52.05.954,spr_english_2023_list2,2021.1.1,Win32,60.12144532,,,space,0.6643,space,1.1477,space,1.1697,space,0.7273,space,0.8317,space,0.6223,space,0.6381,space,0.598,space,0.6317,n,0,7.6149,0,52,52,52,1,,
,,,,,,,,,,,,,,,,,,,,,,,,,,,,,48,48_1,inclusive_gender_they,2,9,she,Martha is tired because she read two novels earlier.,Does Martha have a lot of energy?,no,0,Martha,is,tired,because,she,read,two,novels,earlier.,INC_J_BEG_016,001,2023-07-20_08h52.05.954,spr_english_2023_list2,2021.1.1,Win32,60.12144532,,,space,1.4326,space,0.5674,space,0.5562,space,0.7542,space,1.5379,space,1.1981,space,0.9704,space,0.8358,space,1.2288,n,0,7.4975,0,53,53,53,1,,
,,,,,,,,,,,,,,,,,,,,,,,,,,,,,6,6_1,neutral_gender_someone,2,9,masculine,Someone kissed me and he smiled before I blushed.,Did someone steal a pencil?,no,0,Someone,kissed,me,and,he,smiled,before,I,blushed.,INC_J_BEG_016,001,2023-07-20_08h52.05.954,spr_english_2023_list2,2021.1.1,Win32,60.12144532,,,space,0.5336,space,0.5142,space,0.552,space,0.4835,space,0.4172,space,0.4811,space,0.4812,space,0.4554,space,0.8723,n,0,1.8408,0,54,54,54,1,,
,,,,,,,,,,,,,,,,,,,,,,,,,,,,,18,18_2,inclusive_gender_reflexive,2,9,themself,Luke was reading by themself on the couch earlier.,Was Luke painting?,no,0,Luke,was,reading,by,themself,on,the,couch,earlier.,INC_J_BEG_016,001,2023-07-20_08h52.05.954,spr_english_2023_list2,2021.1.1,Win32,60.12144532,,,space,0.5247,space,0.4352,space,0.5357,space,1.281,space,0.4945,space,0.4984,space,0.4275,space,0.4479,space,0.4491,n,0,1.2143,0,55,55,55,1,,
,,,,,,,,,,,,,,,,,,,,,,,,,,,,,60,NA,filler,1and2,9,NA,"Soft raindrops tapped gently, creating a rhythmic melody outside.",Was it a sunny day?,,0,Soft,raindrops,tapped,"gently,",creating,a,rhythmic,melody,outside.,INC_J_BEG_016,001,2023-07-20_08h52.05.954,spr_english_2023_list2,2021.1.1,Win32,60.12144532,,,space,0.8379,space,0.681,space,0.573,space,0.4915,space,0.5554,space,0.4678,space,0.5335,space,0.5394,space,0.4239,n,0,7.3325,0,56,56,56,1,,
,,,,,,,,,,,,,,,,,,,,,,,,,,,,,47,47_2,inclusive_gender_they,2,9,they,Jane is happy because they won the game earlier.,Did Jane win something?,yes,1,Jane,is,happy,because,they,won,the,game,earlier.,INC_J_BEG_016,001,2023-07-20_08h52.05.954,spr_english_2023_list2,2021.1.1,Win32,60.12144532,,,space,0.4597,space,0.6667,space,1.8743,space,3.4766,space,0.4353,space,0.4814,space,0.5442,space,2.1713,space,1.3887,y,0,3.4014,0,57,57,57,1,,
,,,,,,,,,,,,,,,,,,,,,,,,,,,,,12,12_1,neutral_gender_someone,2,9,masculine,Someone scared me and he ran after I screamed.,Did the person write a note?,no,0,Someone,scared,me,and,he,ran,after,I,screamed.,INC_J_BEG_016,001,2023-07-20_08h52.05.954,spr_english_2023_list2,2021.1.1,Win32,60.12144532,,,space,0.465,space,0.5311,space,0.5569,space,0.8828,space,2.0864,space,0.5642,space,0.7695,space,2.0646,space,0.5026,n,0,6.6807,0,58,58,58,1,,
,,,,,,,,,,,,,,,,,,,,,,,,,,,,,13,13_2,neutral_gender_someone,2,9,neutral,Someone filmed me but they stopped after I objected.,Did the person use a technological device?,yes,1,Someone,filmed,me,but,they,stopped,after,I,objected.,INC_J_BEG_016,001,2023-07-20_08h52.05.954,spr_english_2023_list2,2021.1.1,Win32,60.12144532,,,space,0.4115,space,0.5343,space,0.6288,space,0.5812,space,0.4934,space,0.5811,space,0.6122,space,0.5131,space,0.4646,n,0,5.2684,0,59,59,59,1,,
,,,,,,,,,,,,,,,,,,,,,,,,,,,,,,,,,,,,,,,,,,,,,,,,INC_J_BEG_016,001,2023-07-20_08h52.05.954,spr_english_2023_list2,2021.1.1,Win32,60.12144532,,,,,,,,,,,,,,,,,,,,,,,,,,,,,y,3.8458
