key_resp.keys,key_resp.rt,key_resp_2.keys,key_resp_2.rt,key_resp_3.keys,key_resp_3.rt,key_resp_4.keys,key_resp_4.rt,key_resp_5.keys,key_resp_5.rt,key_resp_6.keys,key_resp_6.rt,key_resp_7.keys,key_resp_7.rt,key_resp_8.keys,key_resp_8.rt,key_resp_9.keys,key_resp_9.rt,key_resp_10.keys,key_resp_10.rt,key_resp_11.keys,key_resp_11.rt,key_resp_15.keys,key_resp_15.rt,trials_2.thisRepN,trials_2.thisTrialN,trials_2.thisN,trials_2.thisIndex,trials_2.ran,base_sentence_number,version,experiment,list,numb_words,gender,sentence,question,answer,CorrAns,w1,w2,w3,w4,w5,w6,w7,w8,w9,participant,session,date,expName,psychopyVersion,OS,frameRate,key_resp_16.keys,key_resp_16.rt,word1.keys,word1.rt,word2.keys,word2.rt,word3.keys,word3.rt,word4.keys,word4.rt,word5.keys,word5.rt,word6.keys,word6.rt,word7.keys,word7.rt,word8.keys,word8.rt,word9.keys,word9.rt,compquestion.keys,compquestion.corr,compquestion.rt,trials.thisRepN,trials.thisTrialN,trials.thisN,trials.thisIndex,trials.ran,trials.order
space,90.5214,y,4.1056,space,1.8478,space,0.8424,space,0.7716,space,0.581,space,0.6669,space,0.4984,space,0.4989,space,0.5049,space,0.4642,n,5.0028,0,0,0,0,1,NA,NA,practica,NA,NA,NA,Rita is uncomfortable because it is very hot outside.,Is it cold?,no,0,Rita,is,uncomfortable,because,it,is,very,hot,outside.,INC_J_BEG_09,001,2023-07-20_08h43.41.250,spr_english_2023_list1,2021.1.1,Win32,58.33965346,,,,,,,,,,,,,,,,,,,,,,,,,,,,,
,,,,space,3.4587,space,0.3969,space,0.4959,space,0.5147,space,0.6155,space,0.6998,space,1.3659,space,2.5733,space,0.6105,n,2.8269,0,1,1,1,1,NA,NA,practica,NA,NA,NA,Peter was running by himself in the park yesterday.,Was Peter painting the wall?,no,0,Peter,was,running,by,himself,in,the,park,yesterday.,INC_J_BEG_09,001,2023-07-20_08h43.41.250,spr_english_2023_list1,2021.1.1,Win32,58.33965346,,,,,,,,,,,,,,,,,,,,,,,,,,,,,
,,,,space,1.6473,space,0.8322,space,1.0941,space,0.5922,space,0.5794,space,0.4317,space,0.531,space,0.447,space,0.4574,y,2.3815,0,2,2,2,1,NA,NA,practica,NA,NA,NA,Hannah is watching tv because she is really bored.,Is Hannah in front of a screen?,yes,1,Hannah,is,watching,tv,because,she,is,really,bored.,INC_J_BEG_09,001,2023-07-20_08h43.41.250,spr_english_2023_list1,2021.1.1,Win32,58.33965346,,,,,,,,,,,,,,,,,,,,,,,,,,,,,
,,,,,,,,,,,,,,,,,,,,,,,,,,,,,1,1_1,neutral_gender_someone,1,9,masculine,Someone called me but he stopped before I answered,Did the person try to communicate?,yes,1,Someone,called,me,but,he,stopped,before,I,answered.,INC_J_BEG_09,001,2023-07-20_08h43.41.250,spr_english_2023_list1,2021.1.1,Win32,58.33965346,space,6.7004,space,2.3063,space,0.5649,space,0.5435,space,0.5104,space,0.3951,space,0.4115,space,0.418,space,0.3832,space,0.3391,y,0,4.7777,0,0,0,0,1,
,,,,,,,,,,,,,,,,,,,,,,,,,,,,,21,21_2,inclusive_gender_reflexive,1,9,themself,Jack was cooking by themself in the kitchen yesterday.,Was Jack in the kitchen?,yes,1,Jack,was,cooking,by,themself,in,the,kitchen,yesterday.,INC_J_BEG_09,001,2023-07-20_08h43.41.250,spr_english_2023_list1,2021.1.1,Win32,58.33965346,,,space,1.0695,space,0.6932,space,1.9814,space,0.6393,space,2.862,space,0.8485,space,0.6646,space,0.465,space,0.419,y,0,2.8656,0,1,1,1,1,
,,,,,,,,,,,,,,,,,,,,,,,,,,,,,55,NA,filler,1and2,9,NA,The aroma of freshly brewed coffee filled the room.,Was the smell nice?,,1,The,aroma,of,freshly,brewed,coffee,filled,the,room.,INC_J_BEG_09,001,2023-07-20_08h43.41.250,spr_english_2023_list1,2021.1.1,Win32,58.33965346,,,space,0.7087,space,0.57,space,0.643,space,0.9156,space,0.5062,space,0.8156,space,0.8368,space,0.4988,space,0.3557,y,0,7.5801,0,2,2,2,1,
,,,,,,,,,,,,,,,,,,,,,,,,,,,,,22,22_1,inclusive_gender_reflexive,1,9,himself,Max was painting by himself in the studio earlier.,Was Max watching tv?,no,0,Max,was,painting,by,himself,in,the,studio,earlier.,INC_J_BEG_09,001,2023-07-20_08h43.41.250,spr_english_2023_list1,2021.1.1,Win32,58.33965346,,,space,0.4023,space,0.6766,space,2.7522,space,0.5667,space,0.3809,space,0.8824,space,0.9656,space,0.4815,space,0.4145,n,0,1.5389,0,3,3,3,1,
,,,,,,,,,,,,,,,,,,,,,,,,,,,,,33,33_1,inclusive_gender_they,1,9,she,Sara is happy because she found new friends yesterday.,Is Sara in a good mood?,yes,1,Sara,is,happy,because,she,found,new,friends,yesterday.,INC_J_BEG_09,001,2023-07-20_08h43.41.250,spr_english_2023_list1,2021.1.1,Win32,58.33965346,,,space,7.8051,space,0.4524,space,0.6775,space,0.6963,space,0.5548,space,0.4132,space,0.3741,space,0.2909,space,0.3388,y,0,2.2704,0,4,4,4,1,
,,,,,,,,,,,,,,,,,,,,,,,,,,,,,31,31_2,inclusive_gender_reflexive,1,9,themself,Troy was singing by themself in the shower yesterday.,Was Troy singing?,yes,1,Troy,was,singing,by,themself,in,the,shower,yesterday.,INC_J_BEG_09,001,2023-07-20_08h43.41.250,spr_english_2023_list1,2021.1.1,Win32,58.33965346,,,space,0.8575,space,0.6509,space,0.4223,space,0.7829,space,1.2357,space,0.3783,space,0.3393,space,0.3047,space,0.4309,y,0,2.1483,0,5,5,5,1,
,,,,,,,,,,,,,,,,,,,,,,,,,,,,,60,NA,filler,1and2,9,NA,"Soft raindrops tapped gently, creating a rhythmic melody outside.",Was it a sunny day?,,0,Soft,raindrops,tapped,"gently,",creating,a,rhythmic,melody,outside.,INC_J_BEG_09,001,2023-07-20_08h43.41.250,spr_english_2023_list1,2021.1.1,Win32,58.33965346,,,space,0.6035,space,0.715,space,1.3996,space,0.6573,space,0.6856,space,0.4146,space,0.3956,space,0.3223,space,0.3589,n,0,1.3815,0,6,6,6,1,
,,,,,,,,,,,,,,,,,,,,,,,,,,,,,34,34_2,inclusive_gender_they,1,9,they,Mary is sad because they lost the dog earlier.,Did mary lose something?,no,0,Mary,is,sad,because,they,lost,the,dog,earlier.,INC_J_BEG_09,001,2023-07-20_08h43.41.250,spr_english_2023_list1,2021.1.1,Win32,58.33965346,,,space,2.3708,space,0.5733,space,1.0651,space,0.4157,space,0.4802,space,0.5318,space,0.4275,space,0.3898,space,0.5382,y,0,1.5681,0,7,7,7,1,
,,,,,,,,,,,,,,,,,,,,,,,,,,,,,10,10_2,neutral_gender_someone,1,9,neutral,Someone shushed me but they stopped before I noticed.,Was the person happy to hear a voice?,no,0,Someone,shushed,me,but,they,stopped,before,I,noticed.,INC_J_BEG_09,001,2023-07-20_08h43.41.250,spr_english_2023_list1,2021.1.1,Win32,58.33965346,,,space,4.4747,space,4.3782,space,0.5669,space,0.5486,space,0.419,space,0.3712,space,0.3832,space,0.3154,space,0.3027,n,0,4.3059,0,8,8,8,1,
,,,,,,,,,,,,,,,,,,,,,,,,,,,,,56,NA,filler,1and2,9,NA,"They went on an exciting trip, embracing their destiny.",Did they stay home?,,0,They,went,on,an,exciting,"trip,",embracing,their,destiny.,INC_J_BEG_09,001,2023-07-20_08h43.41.250,spr_english_2023_list1,2021.1.1,Win32,58.33965346,,,space,1.592,space,0.5594,space,0.4188,space,0.3533,space,0.4314,space,0.3828,space,0.4146,space,0.3894,space,0.4572,n,0,1.5243,0,9,9,9,1,
,,,,,,,,,,,,,,,,,,,,,,,,,,,,,23,23_2,inclusive_gender_reflexive,1,9,themself,Ben was dancing by themself in the kitchen yesterday.,Was Ben in the kitchen?,yes,1,Ben,was,dancing,by,themself,in,the,kitchen,yesterday.,INC_J_BEG_09,001,2023-07-20_08h43.41.250,spr_english_2023_list1,2021.1.1,Win32,58.33965346,,,space,1.6094,space,0.6077,space,0.6048,space,0.5525,space,1.1662,space,0.5659,space,0.4313,space,0.382,space,0.3904,y,0,2.2379,0,10,10,10,1,
,,,,,,,,,,,,,,,,,,,,,,,,,,,,,9,9_1,neutral_gender_someone,1,9,masculine,Someone helped me but he left before I finished.,Did the person offer some help?,yes,1,Someone,helped,me,but,he,left,before,I,finished.,INC_J_BEG_09,001,2023-07-20_08h43.41.250,spr_english_2023_list1,2021.1.1,Win32,58.33965346,,,space,0.6137,space,0.4254,space,0.4387,space,0.3903,space,0.4654,space,0.5164,space,0.3706,space,0.343,space,0.4662,y,0,5.6874,0,11,11,11,1,
,,,,,,,,,,,,,,,,,,,,,,,,,,,,,12,12_2,neutral_gender_someone,1,9,neutral,Someone scared me and they ran after I screamed.,Did the person write a note?,no,0,Someone,scared,me,and,they,ran,after,I,screamed.,INC_J_BEG_09,001,2023-07-20_08h43.41.250,spr_english_2023_list1,2021.1.1,Win32,58.33965346,,,space,0.886,space,0.4816,space,0.3383,space,0.3162,space,0.2668,space,0.2824,space,0.2978,space,0.3015,space,0.2837,n,0,3.3877,0,12,12,12,1,
,,,,,,,,,,,,,,,,,,,,,,,,,,,,,50,NA,filler,1and2,9,NA,"He smiled warmly, extending a hand in friendly greeting.",Did someone fall?,,0,He,smiled,"warmly,",extending,a,hand,in,friendly,greeting.,INC_J_BEG_09,001,2023-07-20_08h43.41.250,spr_english_2023_list1,2021.1.1,Win32,58.33965346,,,space,0.8124,space,0.5841,space,1.3925,space,0.4109,space,0.34,space,0.2805,space,0.2651,space,0.2649,space,0.3068,n,0,1.2049,0,13,13,13,1,
,,,,,,,,,,,,,,,,,,,,,,,,,,,,,36,36_2,inclusive_gender_they,1,9,they,Helen is anxious because they dread the presentation earlier.,Did Helen's presentation go well?,no,0,Helen,is,anxious,because,they,dread,the,presentation,earlier.,INC_J_BEG_09,001,2023-07-20_08h43.41.250,spr_english_2023_list1,2021.1.1,Win32,58.33965346,,,space,0.3046,space,0.4214,space,0.4816,space,1.3499,space,0.2892,space,0.2826,space,0.3279,space,0.3524,space,0.4311,n,0,2.8007,0,14,14,14,1,
,,,,,,,,,,,,,,,,,,,,,,,,,,,,,16,16_2,neutral_gender_someone,1,9,neutral,Someone passed me and they sped before I noticed.,Was everybody going slow?,no,0,Someone,passed,me,and,they,sped,before,I,noticed.,INC_J_BEG_09,001,2023-07-20_08h43.41.250,spr_english_2023_list1,2021.1.1,Win32,58.33965346,,,space,0.8001,space,0.5061,space,0.3718,space,0.3319,space,0.3191,space,0.333,space,0.3018,space,0.3548,space,0.3057,n,0,2.2282,0,15,15,15,1,
,,,,,,,,,,,,,,,,,,,,,,,,,,,,,20,20_1,inclusive_gender_reflexive,1,9,himself,Mike was jogging by himself in the park earlier.,Was Mike sleeping?,no,0,Mike,was,jogging,by,himself,in,the,park,earlier.,INC_J_BEG_09,001,2023-07-20_08h43.41.250,spr_english_2023_list1,2021.1.1,Win32,58.33965346,,,space,0.7045,space,0.3982,space,0.4251,space,0.8482,space,0.3653,space,0.5525,space,0.3592,space,0.2975,space,0.3645,n,0,1.083,0,16,16,16,1,
,,,,,,,,,,,,,,,,,,,,,,,,,,,,,54,NA,filler,1and2,9,NA,"She danced a lot, her movements resembling pure poetry.",Was it an unpleasant dance?,,0,She,danced,a,"lot,",her,movements,resembling,pure,poetry.,INC_J_BEG_09,001,2023-07-20_08h43.41.250,spr_english_2023_list1,2021.1.1,Win32,58.33965346,,,space,0.3182,space,0.3315,space,0.4488,space,0.3183,space,0.3815,space,0.5741,space,0.5488,space,0.3845,space,0.3811,n,0,3.3841,0,17,17,17,1,
,,,,,,,,,,,,,,,,,,,,,,,,,,,,,4,4_2,neutral_gender_someone,1,9,neutral,Someone punched me but they ran before I noticed.,Was everybody involved peaceful?,no,0,Someone,punched,me,but,they,ran,before,I,noticed.,INC_J_BEG_09,001,2023-07-20_08h43.41.250,spr_english_2023_list1,2021.1.1,Win32,58.33965346,,,space,0.2622,space,0.2827,space,0.3351,space,0.2692,space,0.2943,space,0.2654,space,0.288,space,0.3063,space,0.2925,n,0,2.4335,0,18,18,18,1,
,,,,,,,,,,,,,,,,,,,,,,,,,,,,,7,7_1,neutral_gender_someone,1,9,masculine,Someone threatened me but he ran before I reacted.,Was there a threat?,yes,1,Someone,threatened,me,but,he,ran,before,I,reacted.,INC_J_BEG_09,001,2023-07-20_08h43.41.250,spr_english_2023_list1,2021.1.1,Win32,58.33965346,,,space,0.3179,space,0.3148,space,0.5354,space,0.4623,space,0.3331,space,0.3023,space,0.2881,space,0.2862,space,0.2998,y,0,3.5351,0,19,19,19,1,
,,,,,,,,,,,,,,,,,,,,,,,,,,,,,19,19_2,inclusive_gender_reflexive,1,9,themself,James was studying by themself in the library yesterday.,Was James at the library?,yes,1,James,was,studying,by,themself,in,the,library,yesterday.,INC_J_BEG_09,001,2023-07-20_08h43.41.250,spr_english_2023_list1,2021.1.1,Win32,58.33965346,,,space,0.3862,space,0.4675,space,0.3427,space,1.3369,space,0.6826,space,0.5762,space,0.3882,space,0.2811,space,0.29,y,0,1.6028,0,20,20,20,1,
,,,,,,,,,,,,,,,,,,,,,,,,,,,,,11,11_1,neutral_gender_someone,1,9,masculine,Someone pushed me but he tripped after I fell.,Was there any sort of physical violence?,yes,1,Someone,pushed,me,but,he,tripped,after,I,fell.,INC_J_BEG_09,001,2023-07-20_08h43.41.250,spr_english_2023_list1,2021.1.1,Win32,58.33965346,,,space,7.6544,space,0.6148,space,0.3829,space,0.3883,space,0.4538,space,0.5757,space,0.5049,space,0.3321,space,0.3338,y,0,2.7402,0,21,21,21,1,
,,,,,,,,,,,,,,,,,,,,,,,,,,,,,37,37_1,inclusive_gender_they,1,9,she,Emily is grateful because she got nice gifts yesterday.,Did Emily get presents?,yes,1,Emily,is,grateful,because,she,got,nice,gifts,yesterday.,INC_J_BEG_09,001,2023-07-20_08h43.41.250,spr_english_2023_list1,2021.1.1,Win32,58.33965346,,,space,34.6716,space,0.4566,space,0.2818,space,0.3146,space,0.2653,space,0.2318,space,0.3309,space,0.3088,space,0.3681,y,0,1.3241,0,22,22,22,1,
,,,,,,,,,,,,,,,,,,,,,,,,,,,,,32,32_1,inclusive_gender_reflexive,1,9,himself,Hugh was stretching by himself in the garden earlier.,Was Hugh in the attic?,no,0,Hugh,was,stretching,by,himself,in,the,garden,earlier.,INC_J_BEG_09,001,2023-07-20_08h43.41.250,spr_english_2023_list1,2021.1.1,Win32,58.33965346,,,space,0.4114,space,5.491,space,0.3734,space,0.3212,space,0.309,space,0.5169,space,0.2574,space,0.3395,space,0.2154,n,0,1.6152,0,23,23,23,1,
,,,,,,,,,,,,,,,,,,,,,,,,,,,,,44,44_2,inclusive_gender_they,1,9,they,Alice is hopeful because they had good luck yesterday.,Is Alice sad?,no,0,Alice,is,hopeful,because,they,had,good,luck,yesterday.,INC_J_BEG_09,001,2023-07-20_08h43.41.250,spr_english_2023_list1,2021.1.1,Win32,58.33965346,,,space,0.4963,space,0.333,space,0.2741,space,0.374,space,0.3399,space,0.4578,space,0.2606,space,0.2748,space,0.3168,n,0,1.1146,0,24,24,24,1,
,,,,,,,,,,,,,,,,,,,,,,,,,,,,,3,3_1,neutral_gender_someone,1,9,masculine,Someone hit me but he ran before I reacted,Was there physical violence?,yes,1,Someone,hit,me,but,he,ran,before,I,reacted.,INC_J_BEG_09,001,2023-07-20_08h43.41.250,spr_english_2023_list1,2021.1.1,Win32,58.33965346,,,space,0.2896,space,0.7531,space,0.5363,space,0.3358,space,0.3818,space,0.3485,space,0.2613,space,0.3907,space,0.3181,y,0,3.4516,0,25,25,25,1,
,,,,,,,,,,,,,,,,,,,,,,,,,,,,,39,39_1,inclusive_gender_they,1,9,she,Judy is confused because she lost the map ealier.,Did Judy lose something?,yes,1,Judy,is,confused,because,she,lost,the,map,ealier.,INC_J_BEG_09,001,2023-07-20_08h43.41.250,spr_english_2023_list1,2021.1.1,Win32,58.33965346,,,space,0.5101,space,0.3282,space,0.304,space,0.3784,space,0.44,space,0.5693,space,0.4394,space,0.3433,space,0.2395,y,0,1.4821,0,26,26,26,1,
,,,,,,,,,,,,,,,,,,,,,,,,,,,,,18,18_1,inclusive_gender_reflexive,1,9,himself,Luke was reading by himself on the couch earlier.,Was Luke painting?,no,0,Luke,was,reading,by,himself,on,the,couch,earlier.,INC_J_BEG_09,001,2023-07-20_08h43.41.250,spr_english_2023_list1,2021.1.1,Win32,58.33965346,,,space,0.3369,space,0.4936,space,0.2809,space,0.3361,space,0.2812,space,0.4197,space,0.3711,space,0.3662,space,0.4833,n,0,2.5311,0,27,27,27,1,
,,,,,,,,,,,,,,,,,,,,,,,,,,,,,14,14_2,neutral_gender_someone,1,9,neutral,Someone photographed me but they quit before I spoke.,Did someone take pictures?,yes,0,Someone,photographed,me,but,they,quit,before,I,spoke.,INC_J_BEG_09,001,2023-07-20_08h43.41.250,spr_english_2023_list1,2021.1.1,Win32,58.33965346,,,space,0.3761,space,0.3103,space,0.3921,space,0.3305,space,0.3378,space,0.3348,space,0.3831,space,0.367,space,0.3372,y,0,1.6382,0,28,28,28,1,
,,,,,,,,,,,,,,,,,,,,,,,,,,,,,30,30_1,inclusive_gender_reflexive,1,9,himself,Scott was drinking by himself at the bar earlier.,Was Scott at his apartment?,no,0,Scott,was,drinking,by,himself,at,the,bar,earlier.,INC_J_BEG_09,001,2023-07-20_08h43.41.250,spr_english_2023_list1,2021.1.1,Win32,58.33965346,,,space,4.8546,space,0.3147,space,0.3021,space,0.3638,space,0.3572,space,0.3904,space,0.3446,space,0.269,space,0.285,n,0,1.37,0,29,29,29,1,
,,,,,,,,,,,,,,,,,,,,,,,,,,,,,53,NA,filler,1and2,9,NA,"Waves crashed against the shore, creating a soothing rhythm.",Was the rhythm violent?,,0,Waves,crashed,against,the,"shore,",creating,a,soothing,rhythm.,INC_J_BEG_09,001,2023-07-20_08h43.41.250,spr_english_2023_list1,2021.1.1,Win32,58.33965346,,,space,0.3038,space,0.2861,space,0.3182,space,0.2736,space,0.2525,space,0.3046,space,0.4657,space,0.4617,space,0.5379,y,0,6.2979,0,30,30,30,1,
,,,,,,,,,,,,,,,,,,,,,,,,,,,,,28,28_1,inclusive_gender_reflexive,1,9,himself,Tom was swimming by himself at the beach earlier.,Was Tom at the park?,no,0,Tom,was,swimming,by,himself,at,the,beach,earlier.,INC_J_BEG_09,001,2023-07-20_08h43.41.250,spr_english_2023_list1,2021.1.1,Win32,58.33965346,,,space,11.3249,space,0.397,space,0.2739,space,0.2658,space,0.3188,space,0.399,space,1.3817,space,1.133,space,0.5045,n,0,1.2033,0,31,31,31,1,
,,,,,,,,,,,,,,,,,,,,,,,,,,,,,46,46_2,inclusive_gender_they,1,9,they,Kate is tipsy because they had two drinks earlier.,Is Kate sober?,no,0,Kate,is,tipsy,because,they,had,two,drinks,earlier.,INC_J_BEG_09,001,2023-07-20_08h43.41.250,spr_english_2023_list1,2021.1.1,Win32,58.33965346,,,space,2.9934,space,0.3755,space,0.3722,space,0.7219,space,0.4776,space,0.4635,space,0.4993,space,0.855,space,0.4026,n,0,1.4106,0,32,32,32,1,
,,,,,,,,,,,,,,,,,,,,,,,,,,,,,35,35_1,inclusive_gender_they,1,9,she,Susan is joyful because she won the lottery yesterday.,Is Susan in a good mood?,yes,1,Susan,is,joyful,because,she,won,the,lottery,yesterday.,INC_J_BEG_09,001,2023-07-20_08h43.41.250,spr_english_2023_list1,2021.1.1,Win32,58.33965346,,,space,0.8613,space,0.3067,space,0.2907,space,0.4187,space,0.3323,space,0.3396,space,0.3149,space,0.3323,space,0.3925,y,0,1.6642,0,33,33,33,1,
,,,,,,,,,,,,,,,,,,,,,,,,,,,,,24,24_1,inclusive_gender_reflexive,1,9,himself,Jake was strolling by himself at the park earlier.,Was Jake swimming?,no,0,Jake,was,strolling,by,himself,at,the,park,earlier.,INC_J_BEG_09,001,2023-07-20_08h43.41.250,spr_english_2023_list1,2021.1.1,Win32,58.33965346,,,space,0.4804,space,0.767,space,0.266,space,0.3773,space,0.2993,space,0.3327,space,0.2698,space,0.307,space,0.2938,n,0,1.0214,0,34,34,34,1,
,,,,,,,,,,,,,,,,,,,,,,,,,,,,,52,NA,filler,1and2,9,NA,"I awaited eagerly, anticipating the arrival of the morning.",Was the person waiting for something?,,1,I,awaited,"eagerly,",anticipating,the,arrival,of,the,morning.,INC_J_BEG_09,001,2023-07-20_08h43.41.250,spr_english_2023_list1,2021.1.1,Win32,58.33965346,,,space,0.3424,space,1.7063,space,0.2813,space,0.4378,space,0.469,space,0.3229,space,0.2973,space,0.2705,space,0.2646,y,0,1.6109,0,35,35,35,1,
,,,,,,,,,,,,,,,,,,,,,,,,,,,,,27,27_2,inclusive_gender_reflexive,1,9,themself,Paul was drawing by themself in the attic yesterday.,Was Paul drawing?,yes,1,Paul,was,drawing,by,themself,in,the,attic,yesterday.,INC_J_BEG_09,001,2023-07-20_08h43.41.250,spr_english_2023_list1,2021.1.1,Win32,58.33965346,,,space,1.8837,space,0.4941,space,0.8023,space,0.6385,space,0.6268,space,0.7016,space,0.7103,space,0.6802,space,0.683,n,0,2.2287,0,36,36,36,1,
,,,,,,,,,,,,,,,,,,,,,,,,,,,,,57,NA,filler,1and2,9,NA,"The child's laughter echoed, bringing joy to the playground.",Was the child happy?,,1,The,child's,laughter,"echoed,",bringing,joy,to,the,playground.,INC_J_BEG_09,001,2023-07-20_08h43.41.250,spr_english_2023_list1,2021.1.1,Win32,58.33965346,,,space,0.4443,space,0.4608,space,1.1075,space,1.1398,space,0.9107,space,1.3744,space,0.8443,space,0.6918,space,0.8372,y,0,1.7202,0,37,37,37,1,
,,,,,,,,,,,,,,,,,,,,,,,,,,,,,45,45_1,inclusive_gender_they,1,9,she,Patricia is upset because she missed the bus earlier.,Is Patricia in a bad mood?,yes,1,Patricia,is,upset,because,she,missed,the,bus,earlier.,INC_J_BEG_09,001,2023-07-20_08h43.41.250,spr_english_2023_list1,2021.1.1,Win32,58.33965346,,,space,0.6638,space,1.2659,space,0.6245,space,0.6079,space,0.7664,space,0.9045,space,0.4901,space,0.3593,space,0.3952,y,0,1.6645,0,38,38,38,1,
,,,,,,,,,,,,,,,,,,,,,,,,,,,,,8,8_2,neutral_gender_someone,1,9,neutral,Someone serenaded me and they stopped before I applauded.,Did the person dance?,no,0,Someone,serenaded,me,and,they,stopped,before,I,applauded.,INC_J_BEG_09,001,2023-07-20_08h43.41.250,spr_english_2023_list1,2021.1.1,Win32,58.33965346,,,space,0.492,space,0.3517,space,0.315,space,0.3857,space,0.4683,space,0.3308,space,0.3649,space,0.3865,space,0.4171,,,,1,0,60,59,1,59
