key_resp.keys,key_resp.rt,key_resp_2.keys,key_resp_2.rt,key_resp_3.keys,key_resp_3.rt,key_resp_4.keys,key_resp_4.rt,key_resp_5.keys,key_resp_5.rt,key_resp_6.keys,key_resp_6.rt,key_resp_7.keys,key_resp_7.rt,key_resp_8.keys,key_resp_8.rt,key_resp_9.keys,key_resp_9.rt,key_resp_10.keys,key_resp_10.rt,key_resp_11.keys,key_resp_11.rt,key_resp_15.keys,key_resp_15.rt,trials_2.thisRepN,trials_2.thisTrialN,trials_2.thisN,trials_2.thisIndex,trials_2.ran,base_sentence_number,version,experiment,list,numb_words,gender,sentence,question,answer,CorrAns,w1,w2,w3,w4,w5,w6,w7,w8,w9,participant,session,date,expName,psychopyVersion,OS,frameRate,key_resp_16.keys,key_resp_16.rt,word1.keys,word1.rt,word2.keys,word2.rt,word3.keys,word3.rt,word4.keys,word4.rt,word5.keys,word5.rt,word6.keys,word6.rt,word7.keys,word7.rt,word8.keys,word8.rt,word9.keys,word9.rt,compquestion.keys,compquestion.corr,compquestion.rt,trials.thisRepN,trials.thisTrialN,trials.thisN,trials.thisIndex,trials.ran,endoftask.keys,endoftask.rt
space,49.7429,y,2.5528,space,7.5188,space,0.4702,space,0.7593,space,0.6364,space,0.4533,space,0.4945,space,0.6817,space,0.5199,space,0.8672,n,3.4198,0,0,0,0,1,NA,NA,practica,NA,NA,NA,Rita is uncomfortable because it is very hot outside.,Is it cold?,no,0,Rita,is,uncomfortable,because,it,is,very,hot,outside.,INC_J_BEG_8,001,2023-07-20_08h43.46.082,spr_english_2023_list1,2021.1.1,Linux armv81,59.80503558,,,,,,,,,,,,,,,,,,,,,,,,,,,,,,
,,,,space,0.6827,space,0.7634,space,1.0203,space,0.7691,space,0.5926,space,0.5045,space,0.4436,space,0.423,space,0.5555,n,8.3645,0,1,1,1,1,NA,NA,practica,NA,NA,NA,Peter was running by himself in the park yesterday.,Was Peter painting the wall?,no,0,Peter,was,running,by,himself,in,the,park,yesterday.,INC_J_BEG_8,001,2023-07-20_08h43.46.082,spr_english_2023_list1,2021.1.1,Linux armv81,59.80503558,,,,,,,,,,,,,,,,,,,,,,,,,,,,,,
,,,,space,0.8511,space,1.2921,space,0.5229,space,0.3594,space,0.5708,space,0.6165,space,0.3806,space,0.3862,space,0.4383,y,4.8342,0,2,2,2,1,NA,NA,practica,NA,NA,NA,Hannah is watching tv because she is really bored.,Is Hannah in front of a screen?,yes,1,Hannah,is,watching,tv,because,she,is,really,bored.,INC_J_BEG_8,001,2023-07-20_08h43.46.082,spr_english_2023_list1,2021.1.1,Linux armv81,59.80503558,,,,,,,,,,,,,,,,,,,,,,,,,,,,,,
,,,,,,,,,,,,,,,,,,,,,,,,,,,,,1,1_1,neutral_gender_someone,1,9,masculine,Someone called me but he stopped before I answered,Did the person try to communicate?,yes,1,Someone,called,me,but,he,stopped,before,I,answered.,INC_J_BEG_8,001,2023-07-20_08h43.46.082,spr_english_2023_list1,2021.1.1,Linux armv81,59.80503558,space,5.3373,space,1.5898,space,1.573,space,1.3941,space,0.6731,space,0.5877,space,0.6927,space,0.5687,space,0.5549,space,1.4542,y,0,6.3178,0,0,0,0,1,,
,,,,,,,,,,,,,,,,,,,,,,,,,,,,,21,21_2,inclusive_gender_reflexive,1,9,themself,Jack was cooking by themself in the kitchen yesterday.,Was Jack in the kitchen?,yes,1,Jack,was,cooking,by,themself,in,the,kitchen,yesterday.,INC_J_BEG_8,001,2023-07-20_08h43.46.082,spr_english_2023_list1,2021.1.1,Linux armv81,59.80503558,,,space,0.629,space,0.3951,space,0.7421,space,0.4506,space,1.2563,space,0.4884,space,0.407,space,0.5605,space,0.6016,n,0,3.6192,0,1,1,1,1,,
,,,,,,,,,,,,,,,,,,,,,,,,,,,,,55,NA,filler,1and2,9,NA,The aroma of freshly brewed coffee filled the room.,Was the smell nice?,,1,The,aroma,of,freshly,brewed,coffee,filled,the,room.,INC_J_BEG_8,001,2023-07-20_08h43.46.082,spr_english_2023_list1,2021.1.1,Linux armv81,59.80503558,,,space,0.7843,space,1.1235,space,0.4716,space,1.6396,space,0.5221,space,0.5375,space,0.6887,space,0.5114,space,1.1597,y,0,6.3694,0,2,2,2,1,,
,,,,,,,,,,,,,,,,,,,,,,,,,,,,,22,22_1,inclusive_gender_reflexive,1,9,himself,Max was painting by himself in the studio earlier.,Was Max watching tv?,no,0,Max,was,painting,by,himself,in,the,studio,earlier.,INC_J_BEG_8,001,2023-07-20_08h43.46.082,spr_english_2023_list1,2021.1.1,Linux armv81,59.80503558,,,space,0.5693,space,0.4128,space,3.0942,space,0.4826,space,0.457,space,0.4234,space,0.4763,space,0.8715,space,1.073,n,0,3.9158,0,3,3,3,1,,
,,,,,,,,,,,,,,,,,,,,,,,,,,,,,33,33_1,inclusive_gender_they,1,9,she,Sara is happy because she found new friends yesterday.,Is Sara in a good mood?,yes,1,Sara,is,happy,because,she,found,new,friends,yesterday.,INC_J_BEG_8,001,2023-07-20_08h43.46.082,spr_english_2023_list1,2021.1.1,Linux armv81,59.80503558,,,space,2.8527,space,0.4391,space,0.3787,space,0.3864,space,0.3658,space,0.3905,space,0.3905,space,0.4365,space,1.0571,y,0,2.2091,0,4,4,4,1,,
,,,,,,,,,,,,,,,,,,,,,,,,,,,,,31,31_2,inclusive_gender_reflexive,1,9,themself,Troy was singing by themself in the shower yesterday.,Was Troy singing?,yes,1,Troy,was,singing,by,themself,in,the,shower,yesterday.,INC_J_BEG_8,001,2023-07-20_08h43.46.082,spr_english_2023_list1,2021.1.1,Linux armv81,59.80503558,,,space,0.5779,space,0.6142,space,1.2903,space,0.4074,space,1.3513,space,0.4891,space,0.3969,space,0.7348,space,0.486,y,0,6.9066,0,5,5,5,1,,
,,,,,,,,,,,,,,,,,,,,,,,,,,,,,60,NA,filler,1and2,9,NA,"Soft raindrops tapped gently, creating a rhythmic melody outside.",Was it a sunny day?,,0,Soft,raindrops,tapped,"gently,",creating,a,rhythmic,melody,outside.,INC_J_BEG_8,001,2023-07-20_08h43.46.082,spr_english_2023_list1,2021.1.1,Linux armv81,59.80503558,,,space,1.6424,space,1.5202,space,0.5493,space,0.4539,space,0.4923,space,0.4423,space,1.0677,space,0.5419,space,1.292,y,0,4.3056,0,6,6,6,1,,
,,,,,,,,,,,,,,,,,,,,,,,,,,,,,34,34_2,inclusive_gender_they,1,9,they,Mary is sad because they lost the dog earlier.,Did mary lose something?,no,0,Mary,is,sad,because,they,lost,the,dog,earlier.,INC_J_BEG_8,001,2023-07-20_08h43.46.082,spr_english_2023_list1,2021.1.1,Linux armv81,59.80503558,,,space,0.875,space,1.8722,space,0.8409,space,0.5137,space,0.421,space,0.4717,space,0.4918,space,0.805,space,0.4564,y,0,3.6863,0,7,7,7,1,,
,,,,,,,,,,,,,,,,,,,,,,,,,,,,,10,10_2,neutral_gender_someone,1,9,neutral,Someone shushed me but they stopped before I noticed.,Was the person happy to hear a voice?,no,0,Someone,shushed,me,but,they,stopped,before,I,noticed.,INC_J_BEG_8,001,2023-07-20_08h43.46.082,spr_english_2023_list1,2021.1.1,Linux armv81,59.80503558,,,space,0.5172,space,0.0521,space,0.6991,space,0.4258,space,0.3658,space,0.6075,space,0.3559,space,0.3862,space,0.3598,n,0,6.4941,0,8,8,8,1,,
,,,,,,,,,,,,,,,,,,,,,,,,,,,,,56,NA,filler,1and2,9,NA,"They went on an exciting trip, embracing their destiny.",Did they stay home?,,0,They,went,on,an,exciting,"trip,",embracing,their,destiny.,INC_J_BEG_8,001,2023-07-20_08h43.46.082,spr_english_2023_list1,2021.1.1,Linux armv81,59.80503558,,,space,0.4525,space,0.356,space,0.9434,space,0.4563,space,0.6218,space,0.509,space,0.5548,space,0.552,space,0.4218,n,0,2.3198,0,9,9,9,1,,
,,,,,,,,,,,,,,,,,,,,,,,,,,,,,23,23_2,inclusive_gender_reflexive,1,9,themself,Ben was dancing by themself in the kitchen yesterday.,Was Ben in the kitchen?,yes,1,Ben,was,dancing,by,themself,in,the,kitchen,yesterday.,INC_J_BEG_8,001,2023-07-20_08h43.46.082,spr_english_2023_list1,2021.1.1,Linux armv81,59.80503558,,,space,0.2192,space,0.8615,space,0.5537,space,1.6401,space,0.4715,space,0.395,space,0.3467,space,0.8414,space,0.5351,y,0,3.2846,0,10,10,10,1,,
,,,,,,,,,,,,,,,,,,,,,,,,,,,,,9,9_1,neutral_gender_someone,1,9,masculine,Someone helped me but he left before I finished.,Did the person offer some help?,yes,1,Someone,helped,me,but,he,left,before,I,finished.,INC_J_BEG_8,001,2023-07-20_08h43.46.082,spr_english_2023_list1,2021.1.1,Linux armv81,59.80503558,,,space,0.5969,space,0.5974,space,0.4765,space,0.3923,space,0.3406,space,0.4097,space,0.357,space,0.4274,space,0.4016,y,0,4.4335,0,11,11,11,1,,
,,,,,,,,,,,,,,,,,,,,,,,,,,,,,12,12_2,neutral_gender_someone,1,9,neutral,Someone scared me and they ran after I screamed.,Did the person write a note?,no,0,Someone,scared,me,and,they,ran,after,I,screamed.,INC_J_BEG_8,001,2023-07-20_08h43.46.082,spr_english_2023_list1,2021.1.1,Linux armv81,59.80503558,,,space,0.4325,space,0.2887,space,0.4706,space,0.4577,space,0.339,space,0.3317,space,0.2937,space,0.6125,space,0.7588,n,0,3.9654,0,12,12,12,1,,
,,,,,,,,,,,,,,,,,,,,,,,,,,,,,50,NA,filler,1and2,9,NA,"He smiled warmly, extending a hand in friendly greeting.",Did someone fall?,,0,He,smiled,"warmly,",extending,a,hand,in,friendly,greeting.,INC_J_BEG_8,001,2023-07-20_08h43.46.082,spr_english_2023_list1,2021.1.1,Linux armv81,59.80503558,,,space,1.1385,space,0.3202,space,0.4597,space,0.5573,space,0.3901,space,0.41,space,0.4484,space,0.5728,space,0.7059,n,0,2.1203,0,13,13,13,1,,
,,,,,,,,,,,,,,,,,,,,,,,,,,,,,36,36_2,inclusive_gender_they,1,9,they,Helen is anxious because they dread the presentation earlier.,Did Helen's presentation go well?,no,0,Helen,is,anxious,because,they,dread,the,presentation,earlier.,INC_J_BEG_8,001,2023-07-20_08h43.46.082,spr_english_2023_list1,2021.1.1,Linux armv81,59.80503558,,,space,0.4377,space,0.6466,space,0.5869,space,0.7112,space,0.488,space,0.5079,space,0.3942,space,1.1052,space,0.5891,y,0,2.5204,0,14,14,14,1,,
,,,,,,,,,,,,,,,,,,,,,,,,,,,,,16,16_2,neutral_gender_someone,1,9,neutral,Someone passed me and they sped before I noticed.,Was everybody going slow?,no,0,Someone,passed,me,and,they,sped,before,I,noticed.,INC_J_BEG_8,001,2023-07-20_08h43.46.082,spr_english_2023_list1,2021.1.1,Linux armv81,59.80503558,,,space,0.9239,space,0.5499,space,0.7061,space,0.5177,space,0.4558,space,0.4102,space,0.4685,space,0.4296,space,1.1245,n,0,4.1147,0,15,15,15,1,,
,,,,,,,,,,,,,,,,,,,,,,,,,,,,,20,20_1,inclusive_gender_reflexive,1,9,himself,Mike was jogging by himself in the park earlier.,Was Mike sleeping?,no,0,Mike,was,jogging,by,himself,in,the,park,earlier.,INC_J_BEG_8,001,2023-07-20_08h43.46.082,spr_english_2023_list1,2021.1.1,Linux armv81,59.80503558,,,space,0.7719,space,0.5406,space,0.9098,space,0.5921,space,0.4474,space,0.4645,space,0.4492,space,0.4593,space,0.4047,n,0,2.3871,0,16,16,16,1,,
,,,,,,,,,,,,,,,,,,,,,,,,,,,,,54,NA,filler,1and2,9,NA,"She danced a lot, her movements resembling pure poetry.",Was it an unpleasant dance?,,0,She,danced,a,"lot,",her,movements,resembling,pure,poetry.,INC_J_BEG_8,001,2023-07-20_08h43.46.082,spr_english_2023_list1,2021.1.1,Linux armv81,59.80503558,,,space,0.638,space,0.5712,space,0.4796,space,0.4225,space,0.4241,space,0.7062,space,0.8548,space,0.6102,space,0.5478,y,0,3.507,0,17,17,17,1,,
,,,,,,,,,,,,,,,,,,,,,,,,,,,,,4,4_2,neutral_gender_someone,1,9,neutral,Someone punched me but they ran before I noticed.,Was everybody involved peaceful?,no,0,Someone,punched,me,but,they,ran,before,I,noticed.,INC_J_BEG_8,001,2023-07-20_08h43.46.082,spr_english_2023_list1,2021.1.1,Linux armv81,59.80503558,,,space,0.5693,space,0.4241,space,0.489,space,0.4423,space,0.4393,space,0.414,space,0.405,space,0.4241,space,0.4089,y,0,5.6969,0,18,18,18,1,,
,,,,,,,,,,,,,,,,,,,,,,,,,,,,,7,7_1,neutral_gender_someone,1,9,masculine,Someone threatened me but he ran before I reacted.,Was there a threat?,yes,1,Someone,threatened,me,but,he,ran,before,I,reacted.,INC_J_BEG_8,001,2023-07-20_08h43.46.082,spr_english_2023_list1,2021.1.1,Linux armv81,59.80503558,,,space,0.4349,space,0.2877,space,0.2903,space,0.3044,space,0.2477,space,0.2858,space,0.3025,space,0.4036,space,0.3446,n,0,1.9215,0,19,19,19,1,,
,,,,,,,,,,,,,,,,,,,,,,,,,,,,,19,19_2,inclusive_gender_reflexive,1,9,themself,James was studying by themself in the library yesterday.,Was James at the library?,yes,1,James,was,studying,by,themself,in,the,library,yesterday.,INC_J_BEG_8,001,2023-07-20_08h43.46.082,spr_english_2023_list1,2021.1.1,Linux armv81,59.80503558,,,space,0.1525,space,0.3913,space,0.3383,space,0.4703,space,0.4012,space,0.3833,space,0.3434,space,0.3392,space,0.4067,y,0,4.0523,0,20,20,20,1,,
,,,,,,,,,,,,,,,,,,,,,,,,,,,,,11,11_1,neutral_gender_someone,1,9,masculine,Someone pushed me but he tripped after I fell.,Was there any sort of physical violence?,yes,1,Someone,pushed,me,but,he,tripped,after,I,fell.,INC_J_BEG_8,001,2023-07-20_08h43.46.082,spr_english_2023_list1,2021.1.1,Linux armv81,59.80503558,,,space,0.4047,space,0.3843,space,0.3249,space,0.3579,space,0.3697,space,0.5081,space,0.4889,space,0.4581,space,0.8965,y,0,6.6523,0,21,21,21,1,,
,,,,,,,,,,,,,,,,,,,,,,,,,,,,,37,37_1,inclusive_gender_they,1,9,she,Emily is grateful because she got nice gifts yesterday.,Did Emily get presents?,yes,1,Emily,is,grateful,because,she,got,nice,gifts,yesterday.,INC_J_BEG_8,001,2023-07-20_08h43.46.082,spr_english_2023_list1,2021.1.1,Linux armv81,59.80503558,,,space,0.8457,space,0.4417,space,0.2549,space,0.3556,space,0.3925,space,0.4245,space,0.3381,space,0.3579,space,0.3716,y,0,3.7508,0,22,22,22,1,,
,,,,,,,,,,,,,,,,,,,,,,,,,,,,,32,32_1,inclusive_gender_reflexive,1,9,himself,Hugh was stretching by himself in the garden earlier.,Was Hugh in the attic?,no,0,Hugh,was,stretching,by,himself,in,the,garden,earlier.,INC_J_BEG_8,001,2023-07-20_08h43.46.082,spr_english_2023_list1,2021.1.1,Linux armv81,59.80503558,,,space,0.4154,space,0.5166,space,0.4006,space,0.3742,space,0.3918,space,0.3964,space,0.3406,space,0.338,space,0.3405,n,0,2.1527,0,23,23,23,1,,
,,,,,,,,,,,,,,,,,,,,,,,,,,,,,44,44_2,inclusive_gender_they,1,9,they,Alice is hopeful because they had good luck yesterday.,Is Alice sad?,no,0,Alice,is,hopeful,because,they,had,good,luck,yesterday.,INC_J_BEG_8,001,2023-07-20_08h43.46.082,spr_english_2023_list1,2021.1.1,Linux armv81,59.80503558,,,space,0.4545,space,0.3074,space,0.2905,space,0.5087,space,1.5743,space,0.5244,space,1.8089,space,0.4193,space,0.4768,y,0,4.5559,0,24,24,24,1,,
,,,,,,,,,,,,,,,,,,,,,,,,,,,,,3,3_1,neutral_gender_someone,1,9,masculine,Someone hit me but he ran before I reacted,Was there physical violence?,yes,1,Someone,hit,me,but,he,ran,before,I,reacted.,INC_J_BEG_8,001,2023-07-20_08h43.46.082,spr_english_2023_list1,2021.1.1,Linux armv81,59.80503558,,,space,0.4189,space,0.2593,space,0.2431,space,0.2384,space,0.2244,space,0.2283,space,0.4575,space,0.2467,space,0.2067,n,0,12.0935,0,25,25,25,1,,
,,,,,,,,,,,,,,,,,,,,,,,,,,,,,39,39_1,inclusive_gender_they,1,9,she,Judy is confused because she lost the map ealier.,Did Judy lose something?,yes,1,Judy,is,confused,because,she,lost,the,map,ealier.,INC_J_BEG_8,001,2023-07-20_08h43.46.082,spr_english_2023_list1,2021.1.1,Linux armv81,59.80503558,,,space,0.4203,space,0.5466,space,0.2926,space,0.8532,space,0.8398,space,0.3948,space,0.3416,space,0.3132,space,0.3895,y,0,3.2576,0,26,26,26,1,,
,,,,,,,,,,,,,,,,,,,,,,,,,,,,,18,18_1,inclusive_gender_reflexive,1,9,himself,Luke was reading by himself on the couch earlier.,Was Luke painting?,no,0,Luke,was,reading,by,himself,on,the,couch,earlier.,INC_J_BEG_8,001,2023-07-20_08h43.46.082,spr_english_2023_list1,2021.1.1,Linux armv81,59.80503558,,,space,0.4181,space,0.2797,space,0.2691,space,0.3267,space,0.3013,space,0.3475,space,0.3183,space,0.3422,space,0.3771,n,0,2.4437,0,27,27,27,1,,
,,,,,,,,,,,,,,,,,,,,,,,,,,,,,14,14_2,neutral_gender_someone,1,9,neutral,Someone photographed me but they quit before I spoke.,Did someone take pictures?,yes,0,Someone,photographed,me,but,they,quit,before,I,spoke.,INC_J_BEG_8,001,2023-07-20_08h43.46.082,spr_english_2023_list1,2021.1.1,Linux armv81,59.80503558,,,space,0.5899,space,0.4697,space,0.6213,space,1.8905,space,0.4931,space,0.4293,space,0.4863,space,0.3925,space,0.3226,n,0,4.2067,0,28,28,28,1,,
,,,,,,,,,,,,,,,,,,,,,,,,,,,,,30,30_1,inclusive_gender_reflexive,1,9,himself,Scott was drinking by himself at the bar earlier.,Was Scott at his apartment?,no,0,Scott,was,drinking,by,himself,at,the,bar,earlier.,INC_J_BEG_8,001,2023-07-20_08h43.46.082,spr_english_2023_list1,2021.1.1,Linux armv81,59.80503558,,,space,0.237,space,0.3767,space,0.2047,space,0.4543,space,3.2895,space,0.4576,space,0.4145,space,0.7103,space,0.3909,n,0,3.4671,0,29,29,29,1,,
,,,,,,,,,,,,,,,,,,,,,,,,,,,,,53,NA,filler,1and2,9,NA,"Waves crashed against the shore, creating a soothing rhythm.",Was the rhythm violent?,,0,Waves,crashed,against,the,"shore,",creating,a,soothing,rhythm.,INC_J_BEG_8,001,2023-07-20_08h43.46.082,spr_english_2023_list1,2021.1.1,Linux armv81,59.80503558,,,space,0.5682,space,0.2909,space,0.2728,space,0.3623,space,0.2541,space,0.5237,space,0.2453,space,0.256,space,0.2306,n,0,3.0689,0,30,30,30,1,,
,,,,,,,,,,,,,,,,,,,,,,,,,,,,,28,28_1,inclusive_gender_reflexive,1,9,himself,Tom was swimming by himself at the beach earlier.,Was Tom at the park?,no,0,Tom,was,swimming,by,himself,at,the,beach,earlier.,INC_J_BEG_8,001,2023-07-20_08h43.46.082,spr_english_2023_list1,2021.1.1,Linux armv81,59.80503558,,,space,0.5204,space,0.3486,space,0.6706,space,0.3731,space,0.3071,space,0.2913,space,0.3142,space,0.3038,space,0.2892,n,0,2.786,0,31,31,31,1,,
,,,,,,,,,,,,,,,,,,,,,,,,,,,,,46,46_2,inclusive_gender_they,1,9,they,Kate is tipsy because they had two drinks earlier.,Is Kate sober?,no,0,Kate,is,tipsy,because,they,had,two,drinks,earlier.,INC_J_BEG_8,001,2023-07-20_08h43.46.082,spr_english_2023_list1,2021.1.1,Linux armv81,59.80503558,,,space,0.4996,space,0.2432,space,0.222,space,0.474,space,0.3383,space,0.3732,space,0.391,space,0.3921,space,2.2711,n,0,3.0085,0,32,32,32,1,,
,,,,,,,,,,,,,,,,,,,,,,,,,,,,,35,35_1,inclusive_gender_they,1,9,she,Susan is joyful because she won the lottery yesterday.,Is Susan in a good mood?,yes,1,Susan,is,joyful,because,she,won,the,lottery,yesterday.,INC_J_BEG_8,001,2023-07-20_08h43.46.082,spr_english_2023_list1,2021.1.1,Linux armv81,59.80503558,,,space,0.5334,space,0.3509,space,0.2769,space,0.3724,space,0.3463,space,0.3105,space,0.2909,space,0.3063,space,0.3897,y,0,1.8697,0,33,33,33,1,,
,,,,,,,,,,,,,,,,,,,,,,,,,,,,,24,24_1,inclusive_gender_reflexive,1,9,himself,Jake was strolling by himself at the park earlier.,Was Jake swimming?,no,0,Jake,was,strolling,by,himself,at,the,park,earlier.,INC_J_BEG_8,001,2023-07-20_08h43.46.082,spr_english_2023_list1,2021.1.1,Linux armv81,59.80503558,,,space,1.7689,space,0.4437,space,0.3576,space,0.4751,space,0.6204,space,0.2934,space,0.3219,space,0.2987,space,0.3229,n,0,1.4708,0,34,34,34,1,,
,,,,,,,,,,,,,,,,,,,,,,,,,,,,,52,NA,filler,1and2,9,NA,"I awaited eagerly, anticipating the arrival of the morning.",Was the person waiting for something?,,1,I,awaited,"eagerly,",anticipating,the,arrival,of,the,morning.,INC_J_BEG_8,001,2023-07-20_08h43.46.082,spr_english_2023_list1,2021.1.1,Linux armv81,59.80503558,,,space,0.4043,space,0.5221,space,0.3729,space,0.3395,space,0.5129,space,0.8073,space,2.4411,space,4.5906,space,0.4008,y,0,2.4681,0,35,35,35,1,,
,,,,,,,,,,,,,,,,,,,,,,,,,,,,,27,27_2,inclusive_gender_reflexive,1,9,themself,Paul was drawing by themself in the attic yesterday.,Was Paul drawing?,yes,1,Paul,was,drawing,by,themself,in,the,attic,yesterday.,INC_J_BEG_8,001,2023-07-20_08h43.46.082,spr_english_2023_list1,2021.1.1,Linux armv81,59.80503558,,,space,0.4033,space,0.3584,space,0.2719,space,0.2483,space,0.3031,space,0.6985,space,1.1625,space,0.3848,space,0.5976,n,0,2.2532,0,36,36,36,1,,
,,,,,,,,,,,,,,,,,,,,,,,,,,,,,57,NA,filler,1and2,9,NA,"The child's laughter echoed, bringing joy to the playground.",Was the child happy?,,1,The,child's,laughter,"echoed,",bringing,joy,to,the,playground.,INC_J_BEG_8,001,2023-07-20_08h43.46.082,spr_english_2023_list1,2021.1.1,Linux armv81,59.80503558,,,space,0.3944,space,0.2366,space,0.2572,space,0.323,space,0.342,space,0.2944,space,0.4395,space,0.2478,space,0.9824,y,0,3.1529,0,37,37,37,1,,
,,,,,,,,,,,,,,,,,,,,,,,,,,,,,45,45_1,inclusive_gender_they,1,9,she,Patricia is upset because she missed the bus earlier.,Is Patricia in a bad mood?,yes,1,Patricia,is,upset,because,she,missed,the,bus,earlier.,INC_J_BEG_8,001,2023-07-20_08h43.46.082,spr_english_2023_list1,2021.1.1,Linux armv81,59.80503558,,,space,0.3966,space,0.2664,space,0.2387,space,0.3262,space,0.3763,space,0.2843,space,0.4589,space,0.3942,space,0.4212,n,0,4.5731,0,38,38,38,1,,
,,,,,,,,,,,,,,,,,,,,,,,,,,,,,43,43_1,inclusive_gender_they,1,9,she,Rose is content because she won an award earlier.,Is Rose happy?,yes,1,Rose,is,content,because,she,won,an,award,earlier.,INC_J_BEG_8,001,2023-07-20_08h43.46.082,spr_english_2023_list1,2021.1.1,Linux armv81,59.80503558,,,space,0.3997,space,0.2824,space,0.2591,space,0.6248,space,0.4354,space,0.4227,space,0.3236,space,0.3239,space,0.3592,y,0,1.0439,0,39,39,39,1,,
,,,,,,,,,,,,,,,,,,,,,,,,,,,,,29,29_2,inclusive_gender_reflexive,1,9,themself,Kyle was cycling by themself on the trail yesterday.,Was Kyle on the trail?,yes,1,Kyle,was,cycling,by,themself,on,the,trail,yesterday.,INC_J_BEG_8,001,2023-07-20_08h43.46.082,spr_english_2023_list1,2021.1.1,Linux armv81,59.80503558,,,space,0.3674,space,0.3255,space,0.3083,space,0.3922,space,0.3882,space,0.3771,space,0.3725,space,0.5409,space,1.238,y,0,1.9379,0,40,40,40,1,,
,,,,,,,,,,,,,,,,,,,,,,,,,,,,,47,47_1,inclusive_gender_they,1,9,she,Jane is happy because she won the game earlier.,Did Jane win something?,yes,1,Jane,is,happy,because,she,won,the,game,earlier.,INC_J_BEG_8,001,2023-07-20_08h43.46.082,spr_english_2023_list1,2021.1.1,Linux armv81,59.80503558,,,space,1.1057,space,0.3378,space,0.2455,space,0.2721,space,0.2584,space,0.2568,space,0.2567,space,0.2067,space,0.2237,y,0,2.9571,0,41,41,41,1,,
,,,,,,,,,,,,,,,,,,,,,,,,,,,,,2,2_2,neutral_gender_someone,1,9,neutral,Someone warned me and they helped before I fell.,Did everybody maintain stability?,no,0,Someone,warned,me,and,they,helped,before,I,fell.,INC_J_BEG_8,001,2023-07-20_08h43.46.082,spr_english_2023_list1,2021.1.1,Linux armv81,59.80503558,,,space,0.4268,space,0.3583,space,0.3254,space,0.2612,space,0.3555,space,0.2727,space,0.3397,space,0.3229,space,0.3422,n,0,2.9697,0,42,42,42,1,,
,,,,,,,,,,,,,,,,,,,,,,,,,,,,,41,41_1,inclusive_gender_they,1,9,she,Laura is happy because she passed the exam earlier.,Is Laura in a good mood?,yes,1,Laura,is,happy,because,she,passed,the,exam,earlier.,INC_J_BEG_8,001,2023-07-20_08h43.46.082,spr_english_2023_list1,2021.1.1,Linux armv81,59.80503558,,,space,0.2528,space,0.5746,space,0.5413,space,0.4108,space,0.3775,space,0.3786,space,0.3562,space,0.3109,space,0.3245,y,0,1.586,0,43,43,43,1,,
,,,,,,,,,,,,,,,,,,,,,,,,,,,,,58,NA,filler,1and2,9,NA,"Scent of flowers wafted, enchanting with its delicate fragrance.",Did the flowers smell bad?,,0,Scent,of,flowers,"wafted,",enchanting,with,its,delicate,fragrance.,INC_J_BEG_8,001,2023-07-20_08h43.46.082,spr_english_2023_list1,2021.1.1,Linux armv81,59.80503558,,,space,0.3269,space,0.4448,space,0.2858,space,0.4221,space,0.3715,space,0.3242,space,0.5586,space,1.8047,space,0.8088,n,0,3.2385,0,44,44,44,1,,
,,,,,,,,,,,,,,,,,,,,,,,,,,,,,42,42_2,inclusive_gender_they,1,9,they,Nancy is upset because they fell on stage yesterday.,Is Nancy calm?,no,0,Nancy,is,upset,because,they,fell,on,stage,yesterday.,INC_J_BEG_8,001,2023-07-20_08h43.46.082,spr_english_2023_list1,2021.1.1,Linux armv81,59.80503558,,,space,0.4385,space,0.536,space,0.6642,space,0.4332,space,0.3418,space,0.4258,space,1.5483,space,1.0985,space,0.8023,n,0,1.7035,0,45,45,45,1,,
,,,,,,,,,,,,,,,,,,,,,,,,,,,,,48,48_2,inclusive_gender_they,1,9,they,Martha is tired because they read two novels earlier.,Does Martha have a lot of energy?,no,0,Martha,is,tired,because,they,read,two,novels,earlier.,INC_J_BEG_8,001,2023-07-20_08h43.46.082,spr_english_2023_list1,2021.1.1,Linux armv81,59.80503558,,,space,0.2039,space,0.3249,space,0.2402,space,0.2427,space,0.2496,space,0.2234,space,0.2074,space,0.3561,space,0.9933,n,0,4.5478,0,46,46,46,1,,
,,,,,,,,,,,,,,,,,,,,,,,,,,,,,15,15_1,neutral_gender_someone,1,9,masculine,Someone pranked me but he ran before I reacted.,Was a joke mentioned?,yes,1,Someone,pranked,me,but,he,ran,before,I,reacted.,INC_J_BEG_8,001,2023-07-20_08h43.46.082,spr_english_2023_list1,2021.1.1,Linux armv81,59.80503558,,,space,0.5011,space,0.5718,space,0.1944,space,0.1724,space,0.1874,space,0.1881,space,0.1765,space,0.2316,space,0.2065,n,0,3.2667,0,47,47,47,1,,
,,,,,,,,,,,,,,,,,,,,,,,,,,,,,6,6_2,neutral_gender_someone,1,9,neutral,Someone kissed me and they smiled before I blushed.,Did someone steal a pencil?,no,0,Someone,kissed,me,and,they,smiled,before,I,blushed.,INC_J_BEG_8,001,2023-07-20_08h43.46.082,spr_english_2023_list1,2021.1.1,Linux armv81,59.80503558,,,space,0.2683,space,0.2434,space,0.2136,space,0.6571,space,0.456,space,0.542,space,0.4214,space,0.4043,space,0.3472,n,0,4.881,0,48,48,48,1,,
,,,,,,,,,,,,,,,,,,,,,,,,,,,,,49,NA,filler,1and2,9,NA,"The sun behind distant mountains, painting the nice sky.",Was the sun showing?,,1,The,sun,behind,distant,"mountains,",painting,the,nice,sky.,INC_J_BEG_8,001,2023-07-20_08h43.46.082,spr_english_2023_list1,2021.1.1,Linux armv81,59.80503558,,,space,0.5214,space,0.2932,space,0.6028,space,0.6239,space,0.4513,space,0.3868,space,0.4097,space,0.3774,space,0.6396,n,0,2.016,0,49,49,49,1,,
,,,,,,,,,,,,,,,,,,,,,,,,,,,,,38,38_2,inclusive_gender_they,1,9,they,Ruth is angry because they lost the job yesterday.,Is Ruth peaceful?,no,0,Ruth,is,angry,because,they,lost,the,job,yesterday.,INC_J_BEG_8,001,2023-07-20_08h43.46.082,spr_english_2023_list1,2021.1.1,Linux armv81,59.80503558,,,space,0.1672,space,0.3071,space,0.1858,space,0.403,space,0.3009,space,0.2796,space,0.3174,space,0.2591,space,0.404,n,0,1.9921,0,50,50,50,1,,
,,,,,,,,,,,,,,,,,,,,,,,,,,,,,5,5_1,neutral_gender_someone,1,9,masculine,Someone robbed me but he fled before I screamed.,Did a theft occur?,yes,1,Someone,robbed,me,but,he,fled,before,I,screamed.,INC_J_BEG_8,001,2023-07-20_08h43.46.082,spr_english_2023_list1,2021.1.1,Linux armv81,59.80503558,,,space,0.4808,space,0.1867,space,0.1921,space,0.3921,space,0.2194,space,0.2487,space,0.2315,space,0.3921,space,0.2577,n,0,7.8156,0,51,51,51,1,,
,,,,,,,,,,,,,,,,,,,,,,,,,,,,,59,NA,filler,1and2,9,NA,"Colorful balloons floated away, disappearing into the infinite sky.",Did the balloons have many colors?,,1,Colorful,balloons,floated,"away,",disappearing,into,the,infinite,sky.,INC_J_BEG_8,001,2023-07-20_08h43.46.082,spr_english_2023_list1,2021.1.1,Linux armv81,59.80503558,,,space,0.6047,space,0.4495,space,0.3796,space,0.372,space,0.4986,space,0.4241,space,0.2834,space,0.307,space,0.3559,n,0,5.2514,0,52,52,52,1,,
,,,,,,,,,,,,,,,,,,,,,,,,,,,,,13,13_1,neutral_gender_someone,1,9,masculine,Someone filmed me but he stopped after I objected.,Did the person use a technological device?,yes,1,Someone,filmed,me,but,he,stopped,after,I,objected.,INC_J_BEG_8,001,2023-07-20_08h43.46.082,spr_english_2023_list1,2021.1.1,Linux armv81,59.80503558,,,space,0.27,space,0.5173,space,0.3697,space,0.2546,space,0.307,space,0.2534,space,0.3257,space,0.5759,space,0.3694,y,0,3.2035,0,53,53,53,1,,
,,,,,,,,,,,,,,,,,,,,,,,,,,,,,40,40_2,inclusive_gender_they,1,9,they,Clara is relieved because they got a promotion yesterday.,Does Clara feel bad?,no,0,Clara,is,relieved,because,they,got,a,promotion,yesterday.,INC_J_BEG_8,001,2023-07-20_08h43.46.082,spr_english_2023_list1,2021.1.1,Linux armv81,59.80503558,,,space,0.6919,space,0.3771,space,0.1844,space,0.2252,space,0.2417,space,0.2377,space,0.2309,space,0.2716,space,0.2932,n,0,2.5026,0,54,54,54,1,,
,,,,,,,,,,,,,,,,,,,,,,,,,,,,,25,25_2,inclusive_gender_reflexive,1,9,themself,Blake was fishing by themself at the riverbank yesterday.,Was Blake fishing?,yes,1,Blake,was,fishing,by,themself,at,the,riverbank,yesterday.,INC_J_BEG_8,001,2023-07-20_08h43.46.082,spr_english_2023_list1,2021.1.1,Linux armv81,59.80503558,,,space,0.4553,space,0.2623,space,0.1558,space,0.163,space,0.2529,space,0.1644,space,0.2237,space,0.3899,space,0.355,y,0,1.1189,0,55,55,55,1,,
,,,,,,,,,,,,,,,,,,,,,,,,,,,,,51,NA,filler,1and2,9,NA,"The old oak tree stood tall, casting shade below.",Was a big plant mentioned? ,,1,The,old,oak,tree,stood,"tall,",casting,shade,below.,INC_J_BEG_8,001,2023-07-20_08h43.46.082,spr_english_2023_list1,2021.1.1,Linux armv81,59.80503558,,,space,0.3201,space,0.404,space,0.2236,space,0.2415,space,0.225,space,0.2089,space,0.224,space,0.2183,space,0.2398,y,0,5.4028,0,56,56,56,1,,
,,,,,,,,,,,,,,,,,,,,,,,,,,,,,26,26_1,inclusive_gender_reflexive,1,9,himself,Mark was walking by himself in the park earlier.,Was Mark in the living room?,no,0,Mark,was,walking,by,himself,in,the,park,earlier.,INC_J_BEG_8,001,2023-07-20_08h43.46.082,spr_english_2023_list1,2021.1.1,Linux armv81,59.80503558,,,space,0.5016,space,0.2463,space,0.2443,space,0.3573,space,0.2915,space,0.2608,space,0.27,space,0.2885,space,0.6218,n,0,2.1683,0,57,57,57,1,,
,,,,,,,,,,,,,,,,,,,,,,,,,,,,,17,17_2,inclusive_gender_reflexive,1,9,themself,John was sitting by themself on the bench yesterday.,Was John on a bench?,yes,1,John,was,sitting,by,themself,on,the,bench,yesterday.,INC_J_BEG_8,001,2023-07-20_08h43.46.082,spr_english_2023_list1,2021.1.1,Linux armv81,59.80503558,,,space,0.39,space,0.2528,space,0.2222,space,0.2021,space,0.2396,space,0.1967,space,0.3343,space,0.3268,space,0.3372,n,0,1.7213,0,58,58,58,1,,
,,,,,,,,,,,,,,,,,,,,,,,,,,,,,8,8_2,neutral_gender_someone,1,9,neutral,Someone serenaded me and they stopped before I applauded.,Did the person dance?,no,0,Someone,serenaded,me,and,they,stopped,before,I,applauded.,INC_J_BEG_8,001,2023-07-20_08h43.46.082,spr_english_2023_list1,2021.1.1,Linux armv81,59.80503558,,,space,0.4844,space,0.1707,space,0.4858,space,0.5633,space,0.3027,space,0.2113,space,0.2093,space,0.376,space,0.3044,n,0,5.3859,0,59,59,59,1,,
,,,,,,,,,,,,,,,,,,,,,,,,,,,,,,,,,,,,,,,,,,,,,,,,INC_J_BEG_8,001,2023-07-20_08h43.46.082,spr_english_2023_list1,2021.1.1,Linux armv81,59.80503558,,,,,,,,,,,,,,,,,,,,,,,,,,,,,space,2.2645
