key_resp.keys,key_resp.rt,key_resp_2.keys,key_resp_2.rt,key_resp_3.keys,key_resp_3.rt,key_resp_4.keys,key_resp_4.rt,key_resp_5.keys,key_resp_5.rt,key_resp_6.keys,key_resp_6.rt,key_resp_7.keys,key_resp_7.rt,key_resp_8.keys,key_resp_8.rt,key_resp_9.keys,key_resp_9.rt,key_resp_10.keys,key_resp_10.rt,key_resp_11.keys,key_resp_11.rt,key_resp_15.keys,key_resp_15.rt,trials_2.thisRepN,trials_2.thisTrialN,trials_2.thisN,trials_2.thisIndex,trials_2.ran,base_sentence_number,version,experiment,list,numb_words,gender,sentence,question,answer,CorrAns,w1,w2,w3,w4,w5,w6,w7,w8,w9,participant,session,date,expName,psychopyVersion,OS,frameRate,key_resp_16.keys,key_resp_16.rt,word1.keys,word1.rt,word2.keys,word2.rt,word3.keys,word3.rt,word4.keys,word4.rt,word5.keys,word5.rt,word6.keys,word6.rt,word7.keys,word7.rt,word8.keys,word8.rt,word9.keys,word9.rt,compquestion.keys,compquestion.corr,compquestion.rt,trials.thisRepN,trials.thisTrialN,trials.thisN,trials.thisIndex,trials.ran,endoftask.keys,endoftask.rt
space,29.828,y,2.5575,space,3.0497,space,0.8323,space,1.4759,space,0.6847,space,0.5185,space,0.836,space,0.4799,space,0.4611,space,0.5782,n,5.9194,0,0,0,0,1,NA,NA,practica,NA,NA,NA,Rita is uncomfortable because it is very hot outside.,Is it cold?,no,0,Rita,is,uncomfortable,because,it,is,very,hot,outside.,INC_J_02,001,2023-07-20_08h43.54.503,spr_english_2023_list1,2021.1.1,Win32,60.21557175,,,,,,,,,,,,,,,,,,,,,,,,,,,,,,
,,,,space,1.2403,space,1.1377,space,0.8094,space,3.688,space,1.5191,space,0.5694,space,0.4651,space,0.5758,space,0.6386,n,5.6971,0,1,1,1,1,NA,NA,practica,NA,NA,NA,Peter was running by himself in the park yesterday.,Was Peter painting the wall?,no,0,Peter,was,running,by,himself,in,the,park,yesterday.,INC_J_02,001,2023-07-20_08h43.54.503,spr_english_2023_list1,2021.1.1,Win32,60.21557175,,,,,,,,,,,,,,,,,,,,,,,,,,,,,,
,,,,space,0.6515,space,0.5848,space,0.6781,space,0.9204,space,0.9214,space,0.8906,space,0.6861,space,0.5555,space,0.7691,n,4.7412,0,2,2,2,1,NA,NA,practica,NA,NA,NA,Hannah is watching tv because she is really bored.,Is Hannah in front of a screen?,yes,1,Hannah,is,watching,tv,because,she,is,really,bored.,INC_J_02,001,2023-07-20_08h43.54.503,spr_english_2023_list1,2021.1.1,Win32,60.21557175,,,,,,,,,,,,,,,,,,,,,,,,,,,,,,
,,,,,,,,,,,,,,,,,,,,,,,,,,,,,1,1_1,neutral_gender_someone,1,9,masculine,Someone called me but he stopped before I answered,Did the person try to communicate?,yes,1,Someone,called,me,but,he,stopped,before,I,answered.,INC_J_02,001,2023-07-20_08h43.54.503,spr_english_2023_list1,2021.1.1,Win32,60.21557175,space,12.6533,space,1.0729,space,0.6523,space,0.763,space,0.4398,space,0.3827,space,0.6752,space,0.5428,space,0.5532,space,0.4911,n,0,7.2809,0,0,0,0,1,,
,,,,,,,,,,,,,,,,,,,,,,,,,,,,,21,21_2,inclusive_gender_reflexive,1,9,themself,Jack was cooking by themself in the kitchen yesterday.,Was Jack in the kitchen?,yes,1,Jack,was,cooking,by,themself,in,the,kitchen,yesterday.,INC_J_02,001,2023-07-20_08h43.54.503,spr_english_2023_list1,2021.1.1,Win32,60.21557175,,,space,0.8888,space,0.6553,space,0.6602,space,0.577,space,1.7091,space,0.5657,space,0.5671,space,0.5103,space,0.6769,y,0,4.299,0,1,1,1,1,,
,,,,,,,,,,,,,,,,,,,,,,,,,,,,,55,NA,filler,1and2,9,NA,The aroma of freshly brewed coffee filled the room.,Was the smell nice?,,1,The,aroma,of,freshly,brewed,coffee,filled,the,room.,INC_J_02,001,2023-07-20_08h43.54.503,spr_english_2023_list1,2021.1.1,Win32,60.21557175,,,space,0.6383,space,0.7881,space,1.0479,space,2.1865,space,1.9311,space,1.0294,space,0.9344,space,1.6237,space,0.611,y,0,3.7307,0,2,2,2,1,,
,,,,,,,,,,,,,,,,,,,,,,,,,,,,,22,22_1,inclusive_gender_reflexive,1,9,himself,Max was painting by himself in the studio earlier.,Was Max watching tv?,no,0,Max,was,painting,by,himself,in,the,studio,earlier.,INC_J_02,001,2023-07-20_08h43.54.503,spr_english_2023_list1,2021.1.1,Win32,60.21557175,,,space,0.678,space,0.8461,space,0.9338,space,0.5519,space,0.7146,space,0.615,space,0.6304,space,0.744,space,0.7509,n,0,1.9672,0,3,3,3,1,,
,,,,,,,,,,,,,,,,,,,,,,,,,,,,,33,33_1,inclusive_gender_they,1,9,she,Sara is happy because she found new friends yesterday.,Is Sara in a good mood?,yes,1,Sara,is,happy,because,she,found,new,friends,yesterday.,INC_J_02,001,2023-07-20_08h43.54.503,spr_english_2023_list1,2021.1.1,Win32,60.21557175,,,space,0.4601,space,0.7564,space,0.8631,space,1.0298,space,0.6033,space,0.6514,space,0.559,space,0.5696,space,0.5629,y,0,2.4449,0,4,4,4,1,,
,,,,,,,,,,,,,,,,,,,,,,,,,,,,,31,31_2,inclusive_gender_reflexive,1,9,themself,Troy was singing by themself in the shower yesterday.,Was Troy singing?,yes,1,Troy,was,singing,by,themself,in,the,shower,yesterday.,INC_J_02,001,2023-07-20_08h43.54.503,spr_english_2023_list1,2021.1.1,Win32,60.21557175,,,space,0.5497,space,0.8154,space,0.6339,space,0.4968,space,0.7236,space,0.6888,space,0.563,space,0.5988,space,0.5428,y,0,1.7744,0,5,5,5,1,,
,,,,,,,,,,,,,,,,,,,,,,,,,,,,,60,NA,filler,1and2,9,NA,"Soft raindrops tapped gently, creating a rhythmic melody outside.",Was it a sunny day?,,0,Soft,raindrops,tapped,"gently,",creating,a,rhythmic,melody,outside.,INC_J_02,001,2023-07-20_08h43.54.503,spr_english_2023_list1,2021.1.1,Win32,60.21557175,,,space,0.8345,space,1.4297,space,0.5998,space,0.8622,space,0.6475,space,0.6876,space,0.7969,space,0.4948,space,0.5529,n,0,2.6723,0,6,6,6,1,,
,,,,,,,,,,,,,,,,,,,,,,,,,,,,,34,34_2,inclusive_gender_they,1,9,they,Mary is sad because they lost the dog earlier.,Did mary lose something?,no,0,Mary,is,sad,because,they,lost,the,dog,earlier.,INC_J_02,001,2023-07-20_08h43.54.503,spr_english_2023_list1,2021.1.1,Win32,60.21557175,,,space,0.3937,space,0.7999,space,0.9133,space,0.4674,space,0.6542,space,0.6363,space,0.6203,space,0.6836,space,0.8363,y,0,2.5401,0,7,7,7,1,,
,,,,,,,,,,,,,,,,,,,,,,,,,,,,,10,10_2,neutral_gender_someone,1,9,neutral,Someone shushed me but they stopped before I noticed.,Was the person happy to hear a voice?,no,0,Someone,shushed,me,but,they,stopped,before,I,noticed.,INC_J_02,001,2023-07-20_08h43.54.503,spr_english_2023_list1,2021.1.1,Win32,60.21557175,,,space,2.2102,space,0.9519,space,0.673,space,0.4557,space,0.4678,space,0.4987,space,0.5631,space,0.5134,space,0.7362,y,0,10.0124,0,8,8,8,1,,
,,,,,,,,,,,,,,,,,,,,,,,,,,,,,56,NA,filler,1and2,9,NA,"They went on an exciting trip, embracing their destiny.",Did they stay home?,,0,They,went,on,an,exciting,"trip,",embracing,their,destiny.,INC_J_02,001,2023-07-20_08h43.54.503,spr_english_2023_list1,2021.1.1,Win32,60.21557175,,,space,0.8425,space,1.7965,space,0.7016,space,0.4631,space,0.5936,space,0.7474,space,0.7084,space,1.0697,space,1.0434,n,0,4.6805,0,9,9,9,1,,
,,,,,,,,,,,,,,,,,,,,,,,,,,,,,23,23_2,inclusive_gender_reflexive,1,9,themself,Ben was dancing by themself in the kitchen yesterday.,Was Ben in the kitchen?,yes,1,Ben,was,dancing,by,themself,in,the,kitchen,yesterday.,INC_J_02,001,2023-07-20_08h43.54.503,spr_english_2023_list1,2021.1.1,Win32,60.21557175,,,space,1.1963,space,0.6967,space,0.8964,space,0.6984,space,1.1806,space,0.9308,space,0.7312,space,1.2613,space,0.5479,y,0,1.5095,0,10,10,10,1,,
,,,,,,,,,,,,,,,,,,,,,,,,,,,,,9,9_1,neutral_gender_someone,1,9,masculine,Someone helped me but he left before I finished.,Did the person offer some help?,yes,1,Someone,helped,me,but,he,left,before,I,finished.,INC_J_02,001,2023-07-20_08h43.54.503,spr_english_2023_list1,2021.1.1,Win32,60.21557175,,,space,2.5972,space,0.7031,space,0.7159,space,0.4972,space,0.6021,space,0.684,space,0.647,space,0.9174,space,1.5129,y,0,6.374,0,11,11,11,1,,
,,,,,,,,,,,,,,,,,,,,,,,,,,,,,12,12_2,neutral_gender_someone,1,9,neutral,Someone scared me and they ran after I screamed.,Did the person write a note?,no,0,Someone,scared,me,and,they,ran,after,I,screamed.,INC_J_02,001,2023-07-20_08h43.54.503,spr_english_2023_list1,2021.1.1,Win32,60.21557175,,,space,1.2695,space,0.5179,space,0.6723,space,0.5215,space,0.4277,space,0.432,space,0.7674,space,0.4926,space,1.0058,n,0,7.5019,0,12,12,12,1,,
,,,,,,,,,,,,,,,,,,,,,,,,,,,,,50,NA,filler,1and2,9,NA,"He smiled warmly, extending a hand in friendly greeting.",Did someone fall?,,0,He,smiled,"warmly,",extending,a,hand,in,friendly,greeting.,INC_J_02,001,2023-07-20_08h43.54.503,spr_english_2023_list1,2021.1.1,Win32,60.21557175,,,space,0.7247,space,0.7976,space,0.7693,space,0.5883,space,0.5217,space,0.4847,space,0.4311,space,0.6832,space,0.7618,y,0,2.9354,0,13,13,13,1,,
,,,,,,,,,,,,,,,,,,,,,,,,,,,,,36,36_2,inclusive_gender_they,1,9,they,Helen is anxious because they dread the presentation earlier.,Did Helen's presentation go well?,no,0,Helen,is,anxious,because,they,dread,the,presentation,earlier.,INC_J_02,001,2023-07-20_08h43.54.503,spr_english_2023_list1,2021.1.1,Win32,60.21557175,,,space,0.7463,space,0.5754,space,0.4996,space,0.6052,space,0.6988,space,1.498,space,0.6465,space,0.9964,space,0.5312,y,0,3.9791,0,14,14,14,1,,
,,,,,,,,,,,,,,,,,,,,,,,,,,,,,16,16_2,neutral_gender_someone,1,9,neutral,Someone passed me and they sped before I noticed.,Was everybody going slow?,no,0,Someone,passed,me,and,they,sped,before,I,noticed.,INC_J_02,001,2023-07-20_08h43.54.503,spr_english_2023_list1,2021.1.1,Win32,60.21557175,,,space,0.8972,space,0.7123,space,0.5118,space,0.4969,space,0.6018,space,0.8314,space,1.0309,space,0.5323,space,0.4998,y,0,3.5642,0,15,15,15,1,,
,,,,,,,,,,,,,,,,,,,,,,,,,,,,,20,20_1,inclusive_gender_reflexive,1,9,himself,Mike was jogging by himself in the park earlier.,Was Mike sleeping?,no,0,Mike,was,jogging,by,himself,in,the,park,earlier.,INC_J_02,001,2023-07-20_08h43.54.503,spr_english_2023_list1,2021.1.1,Win32,60.21557175,,,space,0.5781,space,0.6643,space,0.8678,space,0.6816,space,0.8015,space,1.0312,space,0.6967,space,1.1483,space,0.6516,y,0,3.0356,0,16,16,16,1,,
,,,,,,,,,,,,,,,,,,,,,,,,,,,,,54,NA,filler,1and2,9,NA,"She danced a lot, her movements resembling pure poetry.",Was it an unpleasant dance?,,0,She,danced,a,"lot,",her,movements,resembling,pure,poetry.,INC_J_02,001,2023-07-20_08h43.54.503,spr_english_2023_list1,2021.1.1,Win32,60.21557175,,,space,0.7284,space,0.463,space,0.5031,space,0.4668,space,1.2675,space,0.553,space,0.8618,space,0.486,space,0.5309,n,0,3.8829,0,17,17,17,1,,
,,,,,,,,,,,,,,,,,,,,,,,,,,,,,4,4_2,neutral_gender_someone,1,9,neutral,Someone punched me but they ran before I noticed.,Was everybody involved peaceful?,no,0,Someone,punched,me,but,they,ran,before,I,noticed.,INC_J_02,001,2023-07-20_08h43.54.503,spr_english_2023_list1,2021.1.1,Win32,60.21557175,,,space,0.5777,space,0.8162,space,0.6261,space,0.5388,space,0.4636,space,0.4845,space,0.7666,space,0.5367,space,1.4897,y,0,6.891,0,18,18,18,1,,
,,,,,,,,,,,,,,,,,,,,,,,,,,,,,7,7_1,neutral_gender_someone,1,9,masculine,Someone threatened me but he ran before I reacted.,Was there a threat?,yes,1,Someone,threatened,me,but,he,ran,before,I,reacted.,INC_J_02,001,2023-07-20_08h43.54.503,spr_english_2023_list1,2021.1.1,Win32,60.21557175,,,space,0.9014,space,1.3198,space,0.5677,space,0.3682,space,0.4167,space,0.4352,space,0.3866,space,0.3752,space,1.0977,y,0,3.7534,0,19,19,19,1,,
,,,,,,,,,,,,,,,,,,,,,,,,,,,,,19,19_2,inclusive_gender_reflexive,1,9,themself,James was studying by themself in the library yesterday.,Was James at the library?,yes,1,James,was,studying,by,themself,in,the,library,yesterday.,INC_J_02,001,2023-07-20_08h43.54.503,spr_english_2023_list1,2021.1.1,Win32,60.21557175,,,space,0.798,space,0.634,space,0.8288,space,1.0153,space,0.8196,space,0.6029,space,0.3695,space,0.4228,space,0.6363,y,0,3.8333,0,20,20,20,1,,
,,,,,,,,,,,,,,,,,,,,,,,,,,,,,11,11_1,neutral_gender_someone,1,9,masculine,Someone pushed me but he tripped after I fell.,Was there any sort of physical violence?,yes,1,Someone,pushed,me,but,he,tripped,after,I,fell.,INC_J_02,001,2023-07-20_08h43.54.503,spr_english_2023_list1,2021.1.1,Win32,60.21557175,,,space,1.6285,space,0.5619,space,0.3978,space,0.4151,space,0.3519,space,0.4366,space,0.4653,space,0.7649,space,0.6661,y,0,7.2515,0,21,21,21,1,,
,,,,,,,,,,,,,,,,,,,,,,,,,,,,,37,37_1,inclusive_gender_they,1,9,she,Emily is grateful because she got nice gifts yesterday.,Did Emily get presents?,yes,1,Emily,is,grateful,because,she,got,nice,gifts,yesterday.,INC_J_02,001,2023-07-20_08h43.54.503,spr_english_2023_list1,2021.1.1,Win32,60.21557175,,,space,0.5764,space,0.5155,space,2.5152,space,1.1302,space,0.4355,space,0.3962,space,0.383,space,0.6481,space,0.6036,y,0,2.0927,0,22,22,22,1,,
,,,,,,,,,,,,,,,,,,,,,,,,,,,,,32,32_1,inclusive_gender_reflexive,1,9,himself,Hugh was stretching by himself in the garden earlier.,Was Hugh in the attic?,no,0,Hugh,was,stretching,by,himself,in,the,garden,earlier.,INC_J_02,001,2023-07-20_08h43.54.503,spr_english_2023_list1,2021.1.1,Win32,60.21557175,,,space,0.7542,space,1.3416,space,0.7562,space,0.5124,space,0.4036,space,0.4458,space,0.4356,space,0.3968,space,0.6536,n,0,5.1507,0,23,23,23,1,,
,,,,,,,,,,,,,,,,,,,,,,,,,,,,,44,44_2,inclusive_gender_they,1,9,they,Alice is hopeful because they had good luck yesterday.,Is Alice sad?,no,0,Alice,is,hopeful,because,they,had,good,luck,yesterday.,INC_J_02,001,2023-07-20_08h43.54.503,spr_english_2023_list1,2021.1.1,Win32,60.21557175,,,space,0.7832,space,0.5329,space,1.5966,space,1.0683,space,0.8146,space,2.0703,space,0.8519,space,0.5131,space,1.3322,n,0,2.4461,0,24,24,24,1,,
,,,,,,,,,,,,,,,,,,,,,,,,,,,,,3,3_1,neutral_gender_someone,1,9,masculine,Someone hit me but he ran before I reacted,Was there physical violence?,yes,1,Someone,hit,me,but,he,ran,before,I,reacted.,INC_J_02,001,2023-07-20_08h43.54.503,spr_english_2023_list1,2021.1.1,Win32,60.21557175,,,space,0.6337,space,0.7138,space,0.5124,space,0.4325,space,0.5007,space,0.5178,space,0.4462,space,0.4611,space,0.5262,y,0,2.5352,0,25,25,25,1,,
,,,,,,,,,,,,,,,,,,,,,,,,,,,,,39,39_1,inclusive_gender_they,1,9,she,Judy is confused because she lost the map ealier.,Did Judy lose something?,yes,1,Judy,is,confused,because,she,lost,the,map,ealier.,INC_J_02,001,2023-07-20_08h43.54.503,spr_english_2023_list1,2021.1.1,Win32,60.21557175,,,space,1.382,space,0.8628,space,0.7122,space,0.5617,space,0.5638,space,0.6157,space,1.0187,space,0.4301,space,0.3975,y,0,2.0287,0,26,26,26,1,,
,,,,,,,,,,,,,,,,,,,,,,,,,,,,,18,18_1,inclusive_gender_reflexive,1,9,himself,Luke was reading by himself on the couch earlier.,Was Luke painting?,no,0,Luke,was,reading,by,himself,on,the,couch,earlier.,INC_J_02,001,2023-07-20_08h43.54.503,spr_english_2023_list1,2021.1.1,Win32,60.21557175,,,space,0.7275,space,0.3866,space,0.8308,space,0.5168,space,0.5116,space,0.4869,space,0.4502,space,0.4295,space,0.5955,n,0,1.9779,0,27,27,27,1,,
,,,,,,,,,,,,,,,,,,,,,,,,,,,,,14,14_2,neutral_gender_someone,1,9,neutral,Someone photographed me but they quit before I spoke.,Did someone take pictures?,yes,0,Someone,photographed,me,but,they,quit,before,I,spoke.,INC_J_02,001,2023-07-20_08h43.54.503,spr_english_2023_list1,2021.1.1,Win32,60.21557175,,,space,0.3611,space,0.9129,space,0.5635,space,0.5467,space,0.4367,space,1.1957,space,0.7884,space,0.619,space,1.1803,y,0,3.0344,0,28,28,28,1,,
,,,,,,,,,,,,,,,,,,,,,,,,,,,,,30,30_1,inclusive_gender_reflexive,1,9,himself,Scott was drinking by himself at the bar earlier.,Was Scott at his apartment?,no,0,Scott,was,drinking,by,himself,at,the,bar,earlier.,INC_J_02,001,2023-07-20_08h43.54.503,spr_english_2023_list1,2021.1.1,Win32,60.21557175,,,space,0.5934,space,0.4466,space,0.9975,space,0.4793,space,0.3705,space,0.467,space,0.4627,space,0.3726,space,0.3634,n,0,3.6323,0,29,29,29,1,,
,,,,,,,,,,,,,,,,,,,,,,,,,,,,,53,NA,filler,1and2,9,NA,"Waves crashed against the shore, creating a soothing rhythm.",Was the rhythm violent?,,0,Waves,crashed,against,the,"shore,",creating,a,soothing,rhythm.,INC_J_02,001,2023-07-20_08h43.54.503,spr_english_2023_list1,2021.1.1,Win32,60.21557175,,,space,0.4674,space,0.8187,space,0.7145,space,0.5637,space,0.512,space,0.7154,space,0.552,space,0.838,space,0.4967,y,0,3.0313,0,30,30,30,1,,
,,,,,,,,,,,,,,,,,,,,,,,,,,,,,28,28_1,inclusive_gender_reflexive,1,9,himself,Tom was swimming by himself at the beach earlier.,Was Tom at the park?,no,0,Tom,was,swimming,by,himself,at,the,beach,earlier.,INC_J_02,001,2023-07-20_08h43.54.503,spr_english_2023_list1,2021.1.1,Win32,60.21557175,,,space,0.6359,space,0.5002,space,0.7296,space,5.1539,space,0.7498,space,1.5817,space,0.5641,space,0.8308,space,0.4887,n,0,1.7125,0,31,31,31,1,,
,,,,,,,,,,,,,,,,,,,,,,,,,,,,,46,46_2,inclusive_gender_they,1,9,they,Kate is tipsy because they had two drinks earlier.,Is Kate sober?,no,0,Kate,is,tipsy,because,they,had,two,drinks,earlier.,INC_J_02,001,2023-07-20_08h43.54.503,spr_english_2023_list1,2021.1.1,Win32,60.21557175,,,space,0.3756,space,0.437,space,0.386,space,0.5668,space,0.4532,space,0.4188,space,0.4132,space,0.4136,space,0.4512,n,0,2.8688,0,32,32,32,1,,
,,,,,,,,,,,,,,,,,,,,,,,,,,,,,35,35_1,inclusive_gender_they,1,9,she,Susan is joyful because she won the lottery yesterday.,Is Susan in a good mood?,yes,1,Susan,is,joyful,because,she,won,the,lottery,yesterday.,INC_J_02,001,2023-07-20_08h43.54.503,spr_english_2023_list1,2021.1.1,Win32,60.21557175,,,space,1.0099,space,1.5592,space,0.833,space,0.8899,space,0.466,space,0.3969,space,0.3516,space,0.4308,space,0.4642,y,0,1.4299,0,33,33,33,1,,
,,,,,,,,,,,,,,,,,,,,,,,,,,,,,24,24_1,inclusive_gender_reflexive,1,9,himself,Jake was strolling by himself at the park earlier.,Was Jake swimming?,no,0,Jake,was,strolling,by,himself,at,the,park,earlier.,INC_J_02,001,2023-07-20_08h43.54.503,spr_english_2023_list1,2021.1.1,Win32,60.21557175,,,space,0.8205,space,0.4172,space,0.5822,space,0.4132,space,0.7065,space,0.4819,space,0.4169,space,0.4014,space,0.52,n,0,1.4965,0,34,34,34,1,,
,,,,,,,,,,,,,,,,,,,,,,,,,,,,,52,NA,filler,1and2,9,NA,"I awaited eagerly, anticipating the arrival of the morning.",Was the person waiting for something?,,1,I,awaited,"eagerly,",anticipating,the,arrival,of,the,morning.,INC_J_02,001,2023-07-20_08h43.54.503,spr_english_2023_list1,2021.1.1,Win32,60.21557175,,,space,0.3722,space,0.9802,space,0.5309,space,0.5448,space,0.5458,space,0.4536,space,0.4529,space,0.4025,space,0.414,y,0,3.4406,0,35,35,35,1,,
,,,,,,,,,,,,,,,,,,,,,,,,,,,,,27,27_2,inclusive_gender_reflexive,1,9,themself,Paul was drawing by themself in the attic yesterday.,Was Paul drawing?,yes,1,Paul,was,drawing,by,themself,in,the,attic,yesterday.,INC_J_02,001,2023-07-20_08h43.54.503,spr_english_2023_list1,2021.1.1,Win32,60.21557175,,,space,0.6014,space,0.43,space,0.4185,space,0.4454,space,0.4201,space,0.5968,space,0.4131,space,0.3694,space,0.481,n,0,1.8879,0,36,36,36,1,,
,,,,,,,,,,,,,,,,,,,,,,,,,,,,,57,NA,filler,1and2,9,NA,"The child's laughter echoed, bringing joy to the playground.",Was the child happy?,,1,The,child's,laughter,"echoed,",bringing,joy,to,the,playground.,INC_J_02,001,2023-07-20_08h43.54.503,spr_english_2023_list1,2021.1.1,Win32,60.21557175,,,space,0.3655,space,0.5295,space,0.5955,space,0.4625,space,0.5469,space,0.4795,space,0.4199,space,0.3856,space,0.9973,y,0,2.2555,0,37,37,37,1,,
,,,,,,,,,,,,,,,,,,,,,,,,,,,,,45,45_1,inclusive_gender_they,1,9,she,Patricia is upset because she missed the bus earlier.,Is Patricia in a bad mood?,yes,1,Patricia,is,upset,because,she,missed,the,bus,earlier.,INC_J_02,001,2023-07-20_08h43.54.503,spr_english_2023_list1,2021.1.1,Win32,60.21557175,,,space,0.7299,space,0.3635,space,0.2956,space,0.5211,space,0.3807,space,0.4144,space,0.4016,space,0.4314,space,0.4188,n,0,3.6343,0,38,38,38,1,,
,,,,,,,,,,,,,,,,,,,,,,,,,,,,,43,43_1,inclusive_gender_they,1,9,she,Rose is content because she won an award earlier.,Is Rose happy?,yes,1,Rose,is,content,because,she,won,an,award,earlier.,INC_J_02,001,2023-07-20_08h43.54.503,spr_english_2023_list1,2021.1.1,Win32,60.21557175,,,space,1.4093,space,0.4181,space,0.3517,space,0.8223,space,0.418,space,0.4452,space,0.4541,space,0.4384,space,0.4849,y,0,2.0337,0,39,39,39,1,,
,,,,,,,,,,,,,,,,,,,,,,,,,,,,,29,29_2,inclusive_gender_reflexive,1,9,themself,Kyle was cycling by themself on the trail yesterday.,Was Kyle on the trail?,yes,1,Kyle,was,cycling,by,themself,on,the,trail,yesterday.,INC_J_02,001,2023-07-20_08h43.54.503,spr_english_2023_list1,2021.1.1,Win32,60.21557175,,,space,0.4936,space,0.3969,space,0.3008,space,1.1348,space,0.6926,space,0.4574,space,0.4298,space,0.3623,space,0.815,y,0,2.1633,0,40,40,40,1,,
,,,,,,,,,,,,,,,,,,,,,,,,,,,,,47,47_1,inclusive_gender_they,1,9,she,Jane is happy because she won the game earlier.,Did Jane win something?,yes,1,Jane,is,happy,because,she,won,the,game,earlier.,INC_J_02,001,2023-07-20_08h43.54.503,spr_english_2023_list1,2021.1.1,Win32,60.21557175,,,space,0.359,space,0.4324,space,0.3778,space,0.4129,space,0.3961,space,0.3664,space,0.4724,space,0.4249,space,0.4134,y,0,1.7312,0,41,41,41,1,,
,,,,,,,,,,,,,,,,,,,,,,,,,,,,,2,2_2,neutral_gender_someone,1,9,neutral,Someone warned me and they helped before I fell.,Did everybody maintain stability?,no,0,Someone,warned,me,and,they,helped,before,I,fell.,INC_J_02,001,2023-07-20_08h43.54.503,spr_english_2023_list1,2021.1.1,Win32,60.21557175,,,space,0.5827,space,0.4467,space,0.4703,space,0.4151,space,0.368,space,0.4129,space,0.5813,space,0.5207,space,0.4285,y,0,2.9494,0,42,42,42,1,,
,,,,,,,,,,,,,,,,,,,,,,,,,,,,,41,41_1,inclusive_gender_they,1,9,she,Laura is happy because she passed the exam earlier.,Is Laura in a good mood?,yes,1,Laura,is,happy,because,she,passed,the,exam,earlier.,INC_J_02,001,2023-07-20_08h43.54.503,spr_english_2023_list1,2021.1.1,Win32,60.21557175,,,space,0.9959,space,0.6384,space,0.3805,space,0.3597,space,0.5877,space,0.479,space,0.4052,space,0.3809,space,0.3492,y,0,1.4464,0,43,43,43,1,,
,,,,,,,,,,,,,,,,,,,,,,,,,,,,,58,NA,filler,1and2,9,NA,"Scent of flowers wafted, enchanting with its delicate fragrance.",Did the flowers smell bad?,,0,Scent,of,flowers,"wafted,",enchanting,with,its,delicate,fragrance.,INC_J_02,001,2023-07-20_08h43.54.503,spr_english_2023_list1,2021.1.1,Win32,60.21557175,,,space,0.7287,space,0.7305,space,0.3792,space,0.4643,space,1.1876,space,0.4141,space,0.3716,space,0.4351,space,0.4495,n,0,3.5638,0,44,44,44,1,,
,,,,,,,,,,,,,,,,,,,,,,,,,,,,,42,42_2,inclusive_gender_they,1,9,they,Nancy is upset because they fell on stage yesterday.,Is Nancy calm?,no,0,Nancy,is,upset,because,they,fell,on,stage,yesterday.,INC_J_02,001,2023-07-20_08h43.54.503,spr_english_2023_list1,2021.1.1,Win32,60.21557175,,,space,0.5677,space,0.6641,space,0.7046,space,0.4487,space,0.4949,space,0.4511,space,0.4637,space,0.3624,space,0.5866,n,0,3.7814,0,45,45,45,1,,
,,,,,,,,,,,,,,,,,,,,,,,,,,,,,48,48_2,inclusive_gender_they,1,9,they,Martha is tired because they read two novels earlier.,Does Martha have a lot of energy?,no,0,Martha,is,tired,because,they,read,two,novels,earlier.,INC_J_02,001,2023-07-20_08h43.54.503,spr_english_2023_list1,2021.1.1,Win32,60.21557175,,,space,0.4617,space,0.6355,space,0.4691,space,0.4052,space,0.4587,space,0.3783,space,0.4135,space,0.4209,space,0.4619,n,0,3.4145,0,46,46,46,1,,
,,,,,,,,,,,,,,,,,,,,,,,,,,,,,15,15_1,neutral_gender_someone,1,9,masculine,Someone pranked me but he ran before I reacted.,Was a joke mentioned?,yes,1,Someone,pranked,me,but,he,ran,before,I,reacted.,INC_J_02,001,2023-07-20_08h43.54.503,spr_english_2023_list1,2021.1.1,Win32,60.21557175,,,space,0.545,space,0.7046,space,0.4999,space,0.396,space,0.4377,space,0.3639,space,0.3966,space,0.4133,space,0.3964,n,0,6.833,0,47,47,47,1,,
,,,,,,,,,,,,,,,,,,,,,,,,,,,,,6,6_2,neutral_gender_someone,1,9,neutral,Someone kissed me and they smiled before I blushed.,Did someone steal a pencil?,no,0,Someone,kissed,me,and,they,smiled,before,I,blushed.,INC_J_02,001,2023-07-20_08h43.54.503,spr_english_2023_list1,2021.1.1,Win32,60.21557175,,,space,0.6845,space,0.5727,space,0.401,space,0.3859,space,0.4461,space,0.4788,space,0.452,space,0.5719,space,0.9799,n,0,4.8491,0,48,48,48,1,,
,,,,,,,,,,,,,,,,,,,,,,,,,,,,,49,NA,filler,1and2,9,NA,"The sun behind distant mountains, painting the nice sky.",Was the sun showing?,,1,The,sun,behind,distant,"mountains,",painting,the,nice,sky.,INC_J_02,001,2023-07-20_08h43.54.503,spr_english_2023_list1,2021.1.1,Win32,60.21557175,,,space,0.545,space,0.5522,space,0.4392,space,0.4467,space,0.5553,space,0.4459,space,0.511,space,0.4458,space,0.4793,y,0,3.4164,0,49,49,49,1,,
,,,,,,,,,,,,,,,,,,,,,,,,,,,,,38,38_2,inclusive_gender_they,1,9,they,Ruth is angry because they lost the job yesterday.,Is Ruth peaceful?,no,0,Ruth,is,angry,because,they,lost,the,job,yesterday.,INC_J_02,001,2023-07-20_08h43.54.503,spr_english_2023_list1,2021.1.1,Win32,60.21557175,,,space,0.565,space,0.469,space,0.4036,space,0.435,space,0.3539,space,0.4291,space,0.3759,space,0.4142,space,0.735,n,0,1.5623,0,50,50,50,1,,
,,,,,,,,,,,,,,,,,,,,,,,,,,,,,5,5_1,neutral_gender_someone,1,9,masculine,Someone robbed me but he fled before I screamed.,Did a theft occur?,yes,1,Someone,robbed,me,but,he,fled,before,I,screamed.,INC_J_02,001,2023-07-20_08h43.54.503,spr_english_2023_list1,2021.1.1,Win32,60.21557175,,,space,0.8776,space,0.4631,space,0.8371,space,0.3676,space,0.3469,space,0.3468,space,0.3987,space,0.3871,space,4.9688,n,0,4.6421,0,51,51,51,1,,
,,,,,,,,,,,,,,,,,,,,,,,,,,,,,59,NA,filler,1and2,9,NA,"Colorful balloons floated away, disappearing into the infinite sky.",Did the balloons have many colors?,,1,Colorful,balloons,floated,"away,",disappearing,into,the,infinite,sky.,INC_J_02,001,2023-07-20_08h43.54.503,spr_english_2023_list1,2021.1.1,Win32,60.21557175,,,space,0.8414,space,0.703,space,0.8048,space,0.5791,space,0.5,space,0.8894,space,0.4653,space,0.4626,space,0.8477,y,0,3.5466,0,52,52,52,1,,
,,,,,,,,,,,,,,,,,,,,,,,,,,,,,13,13_1,neutral_gender_someone,1,9,masculine,Someone filmed me but he stopped after I objected.,Did the person use a technological device?,yes,1,Someone,filmed,me,but,he,stopped,after,I,objected.,INC_J_02,001,2023-07-20_08h43.54.503,spr_english_2023_list1,2021.1.1,Win32,60.21557175,,,space,0.7328,space,0.746,space,0.37,space,0.3307,space,0.467,space,0.3979,space,0.4185,space,0.4634,space,0.9451,y,0,3.4674,0,53,53,53,1,,
,,,,,,,,,,,,,,,,,,,,,,,,,,,,,40,40_2,inclusive_gender_they,1,9,they,Clara is relieved because they got a promotion yesterday.,Does Clara feel bad?,no,0,Clara,is,relieved,because,they,got,a,promotion,yesterday.,INC_J_02,001,2023-07-20_08h43.54.503,spr_english_2023_list1,2021.1.1,Win32,60.21557175,,,space,0.7344,space,0.3501,space,0.3685,space,0.4803,space,1.0556,space,0.6523,space,0.5509,space,0.9653,space,1.5952,y,0,2.9852,0,54,54,54,1,,
,,,,,,,,,,,,,,,,,,,,,,,,,,,,,25,25_2,inclusive_gender_reflexive,1,9,themself,Blake was fishing by themself at the riverbank yesterday.,Was Blake fishing?,yes,1,Blake,was,fishing,by,themself,at,the,riverbank,yesterday.,INC_J_02,001,2023-07-20_08h43.54.503,spr_english_2023_list1,2021.1.1,Win32,60.21557175,,,space,0.2783,space,0.5356,space,0.4469,space,0.3799,space,0.3469,space,0.3673,space,0.3633,space,0.3332,space,0.4891,y,0,1.8627,0,55,55,55,1,,
,,,,,,,,,,,,,,,,,,,,,,,,,,,,,51,NA,filler,1and2,9,NA,"The old oak tree stood tall, casting shade below.",Was a big plant mentioned? ,,1,The,old,oak,tree,stood,"tall,",casting,shade,below.,INC_J_02,001,2023-07-20_08h43.54.503,spr_english_2023_list1,2021.1.1,Win32,60.21557175,,,space,0.3447,space,0.3807,space,0.2837,space,0.3667,space,0.38,space,0.3854,space,0.4454,space,0.4502,space,0.4795,y,0,4.1833,0,56,56,56,1,,
,,,,,,,,,,,,,,,,,,,,,,,,,,,,,26,26_1,inclusive_gender_reflexive,1,9,himself,Mark was walking by himself in the park earlier.,Was Mark in the living room?,no,0,Mark,was,walking,by,himself,in,the,park,earlier.,INC_J_02,001,2023-07-20_08h43.54.503,spr_english_2023_list1,2021.1.1,Win32,60.21557175,,,space,0.2608,space,0.3662,space,0.3172,space,0.4187,space,0.3386,space,0.3635,space,0.3318,space,0.3961,space,0.4802,n,0,1.9792,0,57,57,57,1,,
,,,,,,,,,,,,,,,,,,,,,,,,,,,,,17,17_2,inclusive_gender_reflexive,1,9,themself,John was sitting by themself on the bench yesterday.,Was John on a bench?,yes,1,John,was,sitting,by,themself,on,the,bench,yesterday.,INC_J_02,001,2023-07-20_08h43.54.503,spr_english_2023_list1,2021.1.1,Win32,60.21557175,,,space,0.3613,space,0.4056,space,0.479,space,0.3554,space,0.4335,space,0.4283,space,0.369,space,0.3796,space,1.0305,y,0,1.6678,0,58,58,58,1,,
,,,,,,,,,,,,,,,,,,,,,,,,,,,,,8,8_2,neutral_gender_someone,1,9,neutral,Someone serenaded me and they stopped before I applauded.,Did the person dance?,no,0,Someone,serenaded,me,and,they,stopped,before,I,applauded.,INC_J_02,001,2023-07-20_08h43.54.503,spr_english_2023_list1,2021.1.1,Win32,60.21557175,,,space,0.7294,space,0.3193,space,0.5617,space,0.3305,space,0.3549,space,0.4144,space,0.3886,space,0.4289,space,0.6368,n,0,5.6722,0,59,59,59,1,,
,,,,,,,,,,,,,,,,,,,,,,,,,,,,,,,,,,,,,,,,,,,,,,,,INC_J_02,001,2023-07-20_08h43.54.503,spr_english_2023_list1,2021.1.1,Win32,60.21557175,,,,,,,,,,,,,,,,,,,,,,,,,,,,,y,4.5798
