key_resp.keys,key_resp.rt,key_resp_2.keys,key_resp_2.rt,key_resp_3.keys,key_resp_3.rt,key_resp_4.keys,key_resp_4.rt,key_resp_5.keys,key_resp_5.rt,key_resp_6.keys,key_resp_6.rt,key_resp_7.keys,key_resp_7.rt,key_resp_8.keys,key_resp_8.rt,key_resp_9.keys,key_resp_9.rt,key_resp_10.keys,key_resp_10.rt,key_resp_11.keys,key_resp_11.rt,key_resp_15.keys,key_resp_15.rt,trials_2.thisRepN,trials_2.thisTrialN,trials_2.thisN,trials_2.thisIndex,trials_2.ran,base_sentence_number,version,experiment,list,numb_words,gender,sentence,question,answer,CorrAns,w1,w2,w3,w4,w5,w6,w7,w8,w9,participant,session,date,expName,psychopyVersion,OS,frameRate,key_resp_16.keys,key_resp_16.rt,word1.keys,word1.rt,word2.keys,word2.rt,word3.keys,word3.rt,word4.keys,word4.rt,word5.keys,word5.rt,word6.keys,word6.rt,word7.keys,word7.rt,word8.keys,word8.rt,word9.keys,word9.rt,compquestion.keys,compquestion.corr,compquestion.rt,trials.thisRepN,trials.thisTrialN,trials.thisN,trials.thisIndex,trials.ran,endoftask.keys,endoftask.rt
space,7.0502,y,1.0438,space,7.5155,space,1.7912,space,0.6834,space,0.8928,space,1.0924,space,1.2073,space,0.5536,space,0.7254,space,1.3069,n,7.1992,0,0,0,0,1,NA,NA,practica,NA,NA,NA,Rita is uncomfortable because it is very hot outside.,Is it cold?,no,0,Rita,is,uncomfortable,because,it,is,very,hot,outside.,INC_J_BEG_012,001,2023-07-20_08h48.13.203,spr_english_2023_list1,2021.1.1,Win32,60.0024001,,,,,,,,,,,,,,,,,,,,,,,,,,,,,,
,,,,space,2.382,space,0.4347,space,0.4229,space,0.3713,space,0.4222,space,0.4523,space,0.3849,space,0.6082,space,0.5226,n,3.5603,0,1,1,1,1,NA,NA,practica,NA,NA,NA,Peter was running by himself in the park yesterday.,Was Peter painting the wall?,no,0,Peter,was,running,by,himself,in,the,park,yesterday.,INC_J_BEG_012,001,2023-07-20_08h48.13.203,spr_english_2023_list1,2021.1.1,Win32,60.0024001,,,,,,,,,,,,,,,,,,,,,,,,,,,,,,
,,,,space,0.9712,space,0.3102,space,0.3341,space,0.3058,space,0.4076,space,0.5893,space,0.4327,space,0.4864,space,0.4903,y,2.2679,0,2,2,2,1,NA,NA,practica,NA,NA,NA,Hannah is watching tv because she is really bored.,Is Hannah in front of a screen?,yes,1,Hannah,is,watching,tv,because,she,is,really,bored.,INC_J_BEG_012,001,2023-07-20_08h48.13.203,spr_english_2023_list1,2021.1.1,Win32,60.0024001,,,,,,,,,,,,,,,,,,,,,,,,,,,,,,
,,,,,,,,,,,,,,,,,,,,,,,,,,,,,1,1_1,neutral_gender_someone,1,9,masculine,Someone called me but he stopped before I answered,Did the person try to communicate?,yes,1,Someone,called,me,but,he,stopped,before,I,answered.,INC_J_BEG_012,001,2023-07-20_08h48.13.203,spr_english_2023_list1,2021.1.1,Win32,60.0024001,space,5.2554,space,0.6104,space,0.3605,space,0.3434,space,0.321,space,0.3268,space,0.3585,space,1.6385,space,0.3755,space,0.3092,y,0,3.5539,0,0,0,0,1,,
,,,,,,,,,,,,,,,,,,,,,,,,,,,,,21,21_2,inclusive_gender_reflexive,1,9,themself,Jack was cooking by themself in the kitchen yesterday.,Was Jack in the kitchen?,yes,1,Jack,was,cooking,by,themself,in,the,kitchen,yesterday.,INC_J_BEG_012,001,2023-07-20_08h48.13.203,spr_english_2023_list1,2021.1.1,Win32,60.0024001,,,space,0.787,space,0.4061,space,1.1914,space,0.4677,space,0.4609,space,3.023,space,0.3714,space,0.3565,space,0.5234,y,0,1.9729,0,1,1,1,1,,
,,,,,,,,,,,,,,,,,,,,,,,,,,,,,55,NA,filler,1and2,9,NA,The aroma of freshly brewed coffee filled the room.,Was the smell nice?,,1,The,aroma,of,freshly,brewed,coffee,filled,the,room.,INC_J_BEG_012,001,2023-07-20_08h48.13.203,spr_english_2023_list1,2021.1.1,Win32,60.0024001,,,space,0.3426,space,0.6574,space,0.3798,space,0.3178,space,0.6985,space,0.5406,space,0.3888,space,0.3895,space,0.3393,y,0,3.0899,0,2,2,2,1,,
,,,,,,,,,,,,,,,,,,,,,,,,,,,,,22,22_1,inclusive_gender_reflexive,1,9,himself,Max was painting by himself in the studio earlier.,Was Max watching tv?,no,0,Max,was,painting,by,himself,in,the,studio,earlier.,INC_J_BEG_012,001,2023-07-20_08h48.13.203,spr_english_2023_list1,2021.1.1,Win32,60.0024001,,,space,0.8578,space,0.3756,space,0.3389,space,1.713,space,1.4267,space,0.9403,space,0.44,space,0.4249,space,0.3893,n,0,1.3414,0,3,3,3,1,,
,,,,,,,,,,,,,,,,,,,,,,,,,,,,,33,33_1,inclusive_gender_they,1,9,she,Sara is happy because she found new friends yesterday.,Is Sara in a good mood?,yes,1,Sara,is,happy,because,she,found,new,friends,yesterday.,INC_J_BEG_012,001,2023-07-20_08h48.13.203,spr_english_2023_list1,2021.1.1,Win32,60.0024001,,,space,1.0917,space,0.4008,space,0.3889,space,0.3768,space,0.3558,space,0.3565,space,0.4784,space,0.4389,space,0.3906,y,0,1.4696,0,4,4,4,1,,
,,,,,,,,,,,,,,,,,,,,,,,,,,,,,31,31_2,inclusive_gender_reflexive,1,9,themself,Troy was singing by themself in the shower yesterday.,Was Troy singing?,yes,1,Troy,was,singing,by,themself,in,the,shower,yesterday.,INC_J_BEG_012,001,2023-07-20_08h48.13.203,spr_english_2023_list1,2021.1.1,Win32,60.0024001,,,space,0.3395,space,0.4711,space,1.1245,space,0.4778,space,0.4375,space,1.8582,space,1.1262,space,0.7059,space,0.5973,y,0,1.3229,0,5,5,5,1,,
,,,,,,,,,,,,,,,,,,,,,,,,,,,,,60,NA,filler,1and2,9,NA,"Soft raindrops tapped gently, creating a rhythmic melody outside.",Was it a sunny day?,,0,Soft,raindrops,tapped,"gently,",creating,a,rhythmic,melody,outside.,INC_J_BEG_012,001,2023-07-20_08h48.13.203,spr_english_2023_list1,2021.1.1,Win32,60.0024001,,,space,0.8377,space,1.1324,space,0.4443,space,0.7547,space,0.3964,space,0.4933,space,1.4064,space,0.9263,space,1.2094,n,0,2.0564,0,6,6,6,1,,
,,,,,,,,,,,,,,,,,,,,,,,,,,,,,34,34_2,inclusive_gender_they,1,9,they,Mary is sad because they lost the dog earlier.,Did mary lose something?,no,0,Mary,is,sad,because,they,lost,the,dog,earlier.,INC_J_BEG_012,001,2023-07-20_08h48.13.203,spr_english_2023_list1,2021.1.1,Win32,60.0024001,,,space,0.7043,space,0.4389,space,0.4394,space,0.3494,space,0.488,space,0.4097,space,0.4734,space,0.4747,space,0.4253,y,0,2.3132,0,7,7,7,1,,
,,,,,,,,,,,,,,,,,,,,,,,,,,,,,10,10_2,neutral_gender_someone,1,9,neutral,Someone shushed me but they stopped before I noticed.,Was the person happy to hear a voice?,no,0,Someone,shushed,me,but,they,stopped,before,I,noticed.,INC_J_BEG_012,001,2023-07-20_08h48.13.203,spr_english_2023_list1,2021.1.1,Win32,60.0024001,,,space,0.4906,space,0.3915,space,1.3601,space,0.4875,space,0.5258,space,1.2609,space,0.3936,space,0.4064,space,0.3733,n,0,10.4928,0,8,8,8,1,,
,,,,,,,,,,,,,,,,,,,,,,,,,,,,,56,NA,filler,1and2,9,NA,"They went on an exciting trip, embracing their destiny.",Did they stay home?,,0,They,went,on,an,exciting,"trip,",embracing,their,destiny.,INC_J_BEG_012,001,2023-07-20_08h48.13.203,spr_english_2023_list1,2021.1.1,Win32,60.0024001,,,space,0.6093,space,0.4751,space,0.3591,space,0.3765,space,0.457,space,0.5702,space,0.7908,space,0.522,space,0.5217,n,0,1.2095,0,9,9,9,1,,
,,,,,,,,,,,,,,,,,,,,,,,,,,,,,23,23_2,inclusive_gender_reflexive,1,9,themself,Ben was dancing by themself in the kitchen yesterday.,Was Ben in the kitchen?,yes,1,Ben,was,dancing,by,themself,in,the,kitchen,yesterday.,INC_J_BEG_012,001,2023-07-20_08h48.13.203,spr_english_2023_list1,2021.1.1,Win32,60.0024001,,,space,0.3378,space,0.4109,space,0.4928,space,0.8891,space,0.3915,space,3.0017,space,0.3688,space,0.4887,space,0.5097,y,0,1.4539,0,10,10,10,1,,
,,,,,,,,,,,,,,,,,,,,,,,,,,,,,9,9_1,neutral_gender_someone,1,9,masculine,Someone helped me but he left before I finished.,Did the person offer some help?,yes,1,Someone,helped,me,but,he,left,before,I,finished.,INC_J_BEG_012,001,2023-07-20_08h48.13.203,spr_english_2023_list1,2021.1.1,Win32,60.0024001,,,space,0.2911,space,0.6858,space,0.7569,space,0.5719,space,0.639,space,0.4944,space,0.4946,space,0.5163,space,2.2835,y,0,4.222,0,11,11,11,1,,
,,,,,,,,,,,,,,,,,,,,,,,,,,,,,12,12_2,neutral_gender_someone,1,9,neutral,Someone scared me and they ran after I screamed.,Did the person write a note?,no,0,Someone,scared,me,and,they,ran,after,I,screamed.,INC_J_BEG_012,001,2023-07-20_08h48.13.203,spr_english_2023_list1,2021.1.1,Win32,60.0024001,,,space,0.6161,space,1.8556,space,0.543,space,0.7103,space,0.6901,space,4.6632,space,0.3886,space,0.7496,space,0.4757,n,0,1.662,0,12,12,12,1,,
,,,,,,,,,,,,,,,,,,,,,,,,,,,,,50,NA,filler,1and2,9,NA,"He smiled warmly, extending a hand in friendly greeting.",Did someone fall?,,0,He,smiled,"warmly,",extending,a,hand,in,friendly,greeting.,INC_J_BEG_012,001,2023-07-20_08h48.13.203,spr_english_2023_list1,2021.1.1,Win32,60.0024001,,,space,0.7075,space,0.4093,space,0.4092,space,0.5915,space,0.4703,space,0.4071,space,0.423,space,0.4392,space,0.7907,n,0,1.1366,0,13,13,13,1,,
,,,,,,,,,,,,,,,,,,,,,,,,,,,,,36,36_2,inclusive_gender_they,1,9,they,Helen is anxious because they dread the presentation earlier.,Did Helen's presentation go well?,no,0,Helen,is,anxious,because,they,dread,the,presentation,earlier.,INC_J_BEG_012,001,2023-07-20_08h48.13.203,spr_english_2023_list1,2021.1.1,Win32,60.0024001,,,space,0.3588,space,0.4084,space,0.4999,space,1.6787,space,0.7247,space,1.6355,space,0.4734,space,0.4235,space,0.6057,n,0,4.6595,0,14,14,14,1,,
,,,,,,,,,,,,,,,,,,,,,,,,,,,,,16,16_2,neutral_gender_someone,1,9,neutral,Someone passed me and they sped before I noticed.,Was everybody going slow?,no,0,Someone,passed,me,and,they,sped,before,I,noticed.,INC_J_BEG_012,001,2023-07-20_08h48.13.203,spr_english_2023_list1,2021.1.1,Win32,60.0024001,,,space,0.672,space,0.7409,space,0.5229,space,0.3566,space,0.3102,space,0.316,space,0.4811,space,0.8796,space,0.7055,y,0,5.6719,0,15,15,15,1,,
,,,,,,,,,,,,,,,,,,,,,,,,,,,,,20,20_1,inclusive_gender_reflexive,1,9,himself,Mike was jogging by himself in the park earlier.,Was Mike sleeping?,no,0,Mike,was,jogging,by,himself,in,the,park,earlier.,INC_J_BEG_012,001,2023-07-20_08h48.13.203,spr_english_2023_list1,2021.1.1,Win32,60.0024001,,,space,0.4218,space,0.5,space,0.9388,space,0.6711,space,0.3878,space,0.7502,space,4.9681,space,2.6792,space,0.5138,n,0,1.2762,0,16,16,16,1,,
,,,,,,,,,,,,,,,,,,,,,,,,,,,,,54,NA,filler,1and2,9,NA,"She danced a lot, her movements resembling pure poetry.",Was it an unpleasant dance?,,0,She,danced,a,"lot,",her,movements,resembling,pure,poetry.,INC_J_BEG_012,001,2023-07-20_08h48.13.203,spr_english_2023_list1,2021.1.1,Win32,60.0024001,,,space,0.8128,space,0.7077,space,0.5402,space,0.4505,space,0.3727,space,0.5201,space,0.8554,space,0.6268,space,0.4583,n,0,2.4152,0,17,17,17,1,,
,,,,,,,,,,,,,,,,,,,,,,,,,,,,,4,4_2,neutral_gender_someone,1,9,neutral,Someone punched me but they ran before I noticed.,Was everybody involved peaceful?,no,0,Someone,punched,me,but,they,ran,before,I,noticed.,INC_J_BEG_012,001,2023-07-20_08h48.13.203,spr_english_2023_list1,2021.1.1,Win32,60.0024001,,,space,0.5806,space,0.6798,space,0.4031,space,0.3641,space,0.3002,space,0.6166,space,0.3857,space,0.4289,space,0.4021,n,0,2.6035,0,18,18,18,1,,
,,,,,,,,,,,,,,,,,,,,,,,,,,,,,7,7_1,neutral_gender_someone,1,9,masculine,Someone threatened me but he ran before I reacted.,Was there a threat?,yes,1,Someone,threatened,me,but,he,ran,before,I,reacted.,INC_J_BEG_012,001,2023-07-20_08h48.13.203,spr_english_2023_list1,2021.1.1,Win32,60.0024001,,,space,0.4577,space,0.8736,space,0.636,space,0.4056,space,0.4728,space,0.4111,space,0.3828,space,0.5343,space,1.3104,y,0,2.1338,0,19,19,19,1,,
,,,,,,,,,,,,,,,,,,,,,,,,,,,,,19,19_2,inclusive_gender_reflexive,1,9,themself,James was studying by themself in the library yesterday.,Was James at the library?,yes,1,James,was,studying,by,themself,in,the,library,yesterday.,INC_J_BEG_012,001,2023-07-20_08h48.13.203,spr_english_2023_list1,2021.1.1,Win32,60.0024001,,,space,0.3542,space,1.3405,space,0.7698,space,0.481,space,1.4941,space,0.6409,space,0.7994,space,2.1185,space,0.7508,y,0,2.7644,0,20,20,20,1,,
,,,,,,,,,,,,,,,,,,,,,,,,,,,,,11,11_1,neutral_gender_someone,1,9,masculine,Someone pushed me but he tripped after I fell.,Was there any sort of physical violence?,yes,1,Someone,pushed,me,but,he,tripped,after,I,fell.,INC_J_BEG_012,001,2023-07-20_08h48.13.203,spr_english_2023_list1,2021.1.1,Win32,60.0024001,,,space,1.5299,space,0.7386,space,0.4842,space,0.4528,space,1.0783,space,7.376,space,1.3389,space,0.4724,space,0.327,y,0,3.3014,0,21,21,21,1,,
,,,,,,,,,,,,,,,,,,,,,,,,,,,,,37,37_1,inclusive_gender_they,1,9,she,Emily is grateful because she got nice gifts yesterday.,Did Emily get presents?,yes,1,Emily,is,grateful,because,she,got,nice,gifts,yesterday.,INC_J_BEG_012,001,2023-07-20_08h48.13.203,spr_english_2023_list1,2021.1.1,Win32,60.0024001,,,space,1.2234,space,0.7066,space,1.5104,space,0.4073,space,0.8901,space,0.7244,space,0.9388,space,1.7403,space,0.7768,y,0,1.4397,0,22,22,22,1,,
,,,,,,,,,,,,,,,,,,,,,,,,,,,,,32,32_1,inclusive_gender_reflexive,1,9,himself,Hugh was stretching by himself in the garden earlier.,Was Hugh in the attic?,no,0,Hugh,was,stretching,by,himself,in,the,garden,earlier.,INC_J_BEG_012,001,2023-07-20_08h48.13.203,spr_english_2023_list1,2021.1.1,Win32,60.0024001,,,space,5.1752,space,0.6575,space,4.7084,space,0.464,space,0.3229,space,0.3919,space,0.2794,space,0.3486,space,0.4286,n,0,3.7242,0,23,23,23,1,,
,,,,,,,,,,,,,,,,,,,,,,,,,,,,,44,44_2,inclusive_gender_they,1,9,they,Alice is hopeful because they had good luck yesterday.,Is Alice sad?,no,0,Alice,is,hopeful,because,they,had,good,luck,yesterday.,INC_J_BEG_012,001,2023-07-20_08h48.13.203,spr_english_2023_list1,2021.1.1,Win32,60.0024001,,,space,0.5807,space,0.3905,space,0.2302,space,0.8039,space,0.3573,space,0.3236,space,0.4309,space,0.3905,space,0.4437,n,0,1.69,0,24,24,24,1,,
,,,,,,,,,,,,,,,,,,,,,,,,,,,,,3,3_1,neutral_gender_someone,1,9,masculine,Someone hit me but he ran before I reacted,Was there physical violence?,yes,1,Someone,hit,me,but,he,ran,before,I,reacted.,INC_J_BEG_012,001,2023-07-20_08h48.13.203,spr_english_2023_list1,2021.1.1,Win32,60.0024001,,,space,0.5827,space,0.4211,space,0.3395,space,0.4254,space,0.2858,space,0.2418,space,0.4579,space,0.2218,space,0.4759,y,0,1.4581,0,25,25,25,1,,
,,,,,,,,,,,,,,,,,,,,,,,,,,,,,39,39_1,inclusive_gender_they,1,9,she,Judy is confused because she lost the map ealier.,Did Judy lose something?,yes,1,Judy,is,confused,because,she,lost,the,map,ealier.,INC_J_BEG_012,001,2023-07-20_08h48.13.203,spr_english_2023_list1,2021.1.1,Win32,60.0024001,,,space,0.7542,space,0.3755,space,0.3087,space,0.6888,space,0.3724,space,0.2636,space,0.3545,space,0.358,space,0.3743,y,0,1.4299,0,26,26,26,1,,
,,,,,,,,,,,,,,,,,,,,,,,,,,,,,18,18_1,inclusive_gender_reflexive,1,9,himself,Luke was reading by himself on the couch earlier.,Was Luke painting?,no,0,Luke,was,reading,by,himself,on,the,couch,earlier.,INC_J_BEG_012,001,2023-07-20_08h48.13.203,spr_english_2023_list1,2021.1.1,Win32,60.0024001,,,space,0.5194,space,0.3753,space,0.3913,space,0.9912,space,0.3588,space,0.3568,space,0.3161,space,0.3537,space,0.6222,n,0,1.2051,0,27,27,27,1,,
,,,,,,,,,,,,,,,,,,,,,,,,,,,,,14,14_2,neutral_gender_someone,1,9,neutral,Someone photographed me but they quit before I spoke.,Did someone take pictures?,yes,0,Someone,photographed,me,but,they,quit,before,I,spoke.,INC_J_BEG_012,001,2023-07-20_08h48.13.203,spr_english_2023_list1,2021.1.1,Win32,60.0024001,,,space,0.3214,space,1.2452,space,0.4384,space,0.39,space,0.4104,space,0.5405,space,0.8392,space,0.4086,space,0.376,y,0,1.4551,0,28,28,28,1,,
,,,,,,,,,,,,,,,,,,,,,,,,,,,,,30,30_1,inclusive_gender_reflexive,1,9,himself,Scott was drinking by himself at the bar earlier.,Was Scott at his apartment?,no,0,Scott,was,drinking,by,himself,at,the,bar,earlier.,INC_J_BEG_012,001,2023-07-20_08h48.13.203,spr_english_2023_list1,2021.1.1,Win32,60.0024001,,,space,0.3865,space,0.4072,space,0.3411,space,0.3222,space,0.2951,space,0.3234,space,0.3065,space,0.3069,space,0.3421,n,0,1.4552,0,29,29,29,1,,
,,,,,,,,,,,,,,,,,,,,,,,,,,,,,53,NA,filler,1and2,9,NA,"Waves crashed against the shore, creating a soothing rhythm.",Was the rhythm violent?,,0,Waves,crashed,against,the,"shore,",creating,a,soothing,rhythm.,INC_J_BEG_012,001,2023-07-20_08h48.13.203,spr_english_2023_list1,2021.1.1,Win32,60.0024001,,,space,0.6256,space,0.4423,space,0.6885,space,0.4406,space,0.3606,space,0.4104,space,0.3455,space,0.3738,space,0.6432,y,0,2.0907,0,30,30,30,1,,
,,,,,,,,,,,,,,,,,,,,,,,,,,,,,28,28_1,inclusive_gender_reflexive,1,9,himself,Tom was swimming by himself at the beach earlier.,Was Tom at the park?,no,0,Tom,was,swimming,by,himself,at,the,beach,earlier.,INC_J_BEG_012,001,2023-07-20_08h48.13.203,spr_english_2023_list1,2021.1.1,Win32,60.0024001,,,space,0.3901,space,0.3729,space,0.3222,space,1.141,space,0.395,space,0.8261,space,0.4399,space,0.3266,space,0.5923,n,0,1.2089,0,31,31,31,1,,
,,,,,,,,,,,,,,,,,,,,,,,,,,,,,46,46_2,inclusive_gender_they,1,9,they,Kate is tipsy because they had two drinks earlier.,Is Kate sober?,no,0,Kate,is,tipsy,because,they,had,two,drinks,earlier.,INC_J_BEG_012,001,2023-07-20_08h48.13.203,spr_english_2023_list1,2021.1.1,Win32,60.0024001,,,space,0.4388,space,0.4615,space,0.4213,space,0.528,space,0.4065,space,0.4428,space,0.4399,space,0.7919,space,0.3925,n,0,1.9867,0,32,32,32,1,,
,,,,,,,,,,,,,,,,,,,,,,,,,,,,,35,35_1,inclusive_gender_they,1,9,she,Susan is joyful because she won the lottery yesterday.,Is Susan in a good mood?,yes,1,Susan,is,joyful,because,she,won,the,lottery,yesterday.,INC_J_BEG_012,001,2023-07-20_08h48.13.203,spr_english_2023_list1,2021.1.1,Win32,60.0024001,,,space,1.5577,space,1.012,space,0.4079,space,2.3264,space,0.4918,space,0.7343,space,0.5906,space,0.7351,space,0.7164,y,0,1.2495,0,33,33,33,1,,
,,,,,,,,,,,,,,,,,,,,,,,,,,,,,24,24_1,inclusive_gender_reflexive,1,9,himself,Jake was strolling by himself at the park earlier.,Was Jake swimming?,no,0,Jake,was,strolling,by,himself,at,the,park,earlier.,INC_J_BEG_012,001,2023-07-20_08h48.13.203,spr_english_2023_list1,2021.1.1,Win32,60.0024001,,,space,0.4182,space,0.4395,space,0.5744,space,0.8045,space,1.2223,space,0.6364,space,2.8839,space,0.524,space,0.6717,n,0,0.9654,0,34,34,34,1,,
,,,,,,,,,,,,,,,,,,,,,,,,,,,,,52,NA,filler,1and2,9,NA,"I awaited eagerly, anticipating the arrival of the morning.",Was the person waiting for something?,,1,I,awaited,"eagerly,",anticipating,the,arrival,of,the,morning.,INC_J_BEG_012,001,2023-07-20_08h48.13.203,spr_english_2023_list1,2021.1.1,Win32,60.0024001,,,space,0.8217,space,0.3283,space,0.339,space,1.327,space,0.5716,space,0.3889,space,0.4016,space,0.4034,space,0.788,y,0,1.6393,0,35,35,35,1,,
,,,,,,,,,,,,,,,,,,,,,,,,,,,,,27,27_2,inclusive_gender_reflexive,1,9,themself,Paul was drawing by themself in the attic yesterday.,Was Paul drawing?,yes,1,Paul,was,drawing,by,themself,in,the,attic,yesterday.,INC_J_BEG_012,001,2023-07-20_08h48.13.203,spr_english_2023_list1,2021.1.1,Win32,60.0024001,,,space,0.6268,space,0.3088,space,0.7224,space,1.0747,space,0.5448,space,0.4844,space,0.573,space,0.2283,space,0.3561,y,0,1.1936,0,36,36,36,1,,
,,,,,,,,,,,,,,,,,,,,,,,,,,,,,57,NA,filler,1and2,9,NA,"The child's laughter echoed, bringing joy to the playground.",Was the child happy?,,1,The,child's,laughter,"echoed,",bringing,joy,to,the,playground.,INC_J_BEG_012,001,2023-07-20_08h48.13.203,spr_english_2023_list1,2021.1.1,Win32,60.0024001,,,space,0.4046,space,0.407,space,0.6114,space,0.3389,space,0.6598,space,0.4559,space,0.3761,space,0.3717,space,0.4721,y,0,1.1235,0,37,37,37,1,,
,,,,,,,,,,,,,,,,,,,,,,,,,,,,,45,45_1,inclusive_gender_they,1,9,she,Patricia is upset because she missed the bus earlier.,Is Patricia in a bad mood?,yes,1,Patricia,is,upset,because,she,missed,the,bus,earlier.,INC_J_BEG_012,001,2023-07-20_08h48.13.203,spr_english_2023_list1,2021.1.1,Win32,60.0024001,,,space,0.4878,space,0.3287,space,0.3065,space,0.4075,space,0.3232,space,0.5105,space,1.0436,space,0.4578,space,0.9402,y,0,1.4225,0,38,38,38,1,,
,,,,,,,,,,,,,,,,,,,,,,,,,,,,,43,43_1,inclusive_gender_they,1,9,she,Rose is content because she won an award earlier.,Is Rose happy?,yes,1,Rose,is,content,because,she,won,an,award,earlier.,INC_J_BEG_012,001,2023-07-20_08h48.13.203,spr_english_2023_list1,2021.1.1,Win32,60.0024001,,,space,1.9114,space,0.3303,space,0.3055,space,3.4598,space,0.5079,space,2.7591,space,0.8056,space,0.5545,space,0.3588,y,0,0.8893,0,39,39,39,1,,
,,,,,,,,,,,,,,,,,,,,,,,,,,,,,29,29_2,inclusive_gender_reflexive,1,9,themself,Kyle was cycling by themself on the trail yesterday.,Was Kyle on the trail?,yes,1,Kyle,was,cycling,by,themself,on,the,trail,yesterday.,INC_J_BEG_012,001,2023-07-20_08h48.13.203,spr_english_2023_list1,2021.1.1,Win32,60.0024001,,,space,0.2919,space,0.3219,space,0.2598,space,0.4563,space,0.3745,space,0.3899,space,0.306,space,0.3601,space,0.4397,y,0,1.3506,0,40,40,40,1,,
,,,,,,,,,,,,,,,,,,,,,,,,,,,,,47,47_1,inclusive_gender_they,1,9,she,Jane is happy because she won the game earlier.,Did Jane win something?,yes,1,Jane,is,happy,because,she,won,the,game,earlier.,INC_J_BEG_012,001,2023-07-20_08h48.13.203,spr_english_2023_list1,2021.1.1,Win32,60.0024001,,,space,0.3666,space,0.3407,space,0.3393,space,0.5323,space,0.8392,space,0.7311,space,1.0465,space,0.6691,space,0.4051,y,0,2.0742,0,41,41,41,1,,
,,,,,,,,,,,,,,,,,,,,,,,,,,,,,2,2_2,neutral_gender_someone,1,9,neutral,Someone warned me and they helped before I fell.,Did everybody maintain stability?,no,0,Someone,warned,me,and,they,helped,before,I,fell.,INC_J_BEG_012,001,2023-07-20_08h48.13.203,spr_english_2023_list1,2021.1.1,Win32,60.0024001,,,space,1.1718,space,0.3424,space,1.9761,space,0.6898,space,1.5228,space,1.0931,space,0.4443,space,0.4603,space,0.4106,n,0,1.8395,0,42,42,42,1,,
,,,,,,,,,,,,,,,,,,,,,,,,,,,,,41,41_1,inclusive_gender_they,1,9,she,Laura is happy because she passed the exam earlier.,Is Laura in a good mood?,yes,1,Laura,is,happy,because,she,passed,the,exam,earlier.,INC_J_BEG_012,001,2023-07-20_08h48.13.203,spr_english_2023_list1,2021.1.1,Win32,60.0024001,,,space,0.375,space,0.5736,space,0.4852,space,0.5016,space,0.4264,space,0.7065,space,0.3557,space,0.3555,space,0.3909,y,0,1.105,0,43,43,43,1,,
,,,,,,,,,,,,,,,,,,,,,,,,,,,,,58,NA,filler,1and2,9,NA,"Scent of flowers wafted, enchanting with its delicate fragrance.",Did the flowers smell bad?,,0,Scent,of,flowers,"wafted,",enchanting,with,its,delicate,fragrance.,INC_J_BEG_012,001,2023-07-20_08h48.13.203,spr_english_2023_list1,2021.1.1,Win32,60.0024001,,,space,2.157,space,0.5548,space,0.4068,space,0.3326,space,0.52,space,0.6647,space,0.4385,space,0.3602,space,0.4435,n,0,2.2808,0,44,44,44,1,,
,,,,,,,,,,,,,,,,,,,,,,,,,,,,,42,42_2,inclusive_gender_they,1,9,they,Nancy is upset because they fell on stage yesterday.,Is Nancy calm?,no,0,Nancy,is,upset,because,they,fell,on,stage,yesterday.,INC_J_BEG_012,001,2023-07-20_08h48.13.203,spr_english_2023_list1,2021.1.1,Win32,60.0024001,,,space,0.4903,space,0.7557,space,0.2937,space,0.2915,space,0.2745,space,0.2599,space,0.3223,space,0.3075,space,1.2596,n,0,2.6434,0,45,45,45,1,,
,,,,,,,,,,,,,,,,,,,,,,,,,,,,,48,48_2,inclusive_gender_they,1,9,they,Martha is tired because they read two novels earlier.,Does Martha have a lot of energy?,no,0,Martha,is,tired,because,they,read,two,novels,earlier.,INC_J_BEG_012,001,2023-07-20_08h48.13.203,spr_english_2023_list1,2021.1.1,Win32,60.0024001,,,space,1.0057,space,0.3108,space,0.2434,space,0.5107,space,0.3451,space,0.3733,space,0.6727,space,0.4626,space,0.455,n,0,1.9091,0,46,46,46,1,,
,,,,,,,,,,,,,,,,,,,,,,,,,,,,,15,15_1,neutral_gender_someone,1,9,masculine,Someone pranked me but he ran before I reacted.,Was a joke mentioned?,yes,1,Someone,pranked,me,but,he,ran,before,I,reacted.,INC_J_BEG_012,001,2023-07-20_08h48.13.203,spr_english_2023_list1,2021.1.1,Win32,60.0024001,,,space,0.5885,space,0.3067,space,0.3902,space,0.3083,space,0.2985,space,0.2916,space,0.3411,space,0.3147,space,0.4284,y,0,1.7965,0,47,47,47,1,,
,,,,,,,,,,,,,,,,,,,,,,,,,,,,,6,6_2,neutral_gender_someone,1,9,neutral,Someone kissed me and they smiled before I blushed.,Did someone steal a pencil?,no,0,Someone,kissed,me,and,they,smiled,before,I,blushed.,INC_J_BEG_012,001,2023-07-20_08h48.13.203,spr_english_2023_list1,2021.1.1,Win32,60.0024001,,,space,0.6197,space,0.7732,space,0.4602,space,0.3749,space,0.3596,space,0.408,space,0.4777,space,1.1933,space,0.391,n,0,1.8103,0,48,48,48,1,,
,,,,,,,,,,,,,,,,,,,,,,,,,,,,,49,NA,filler,1and2,9,NA,"The sun behind distant mountains, painting the nice sky.",Was the sun showing?,,1,The,sun,behind,distant,"mountains,",painting,the,nice,sky.,INC_J_BEG_012,001,2023-07-20_08h48.13.203,spr_english_2023_list1,2021.1.1,Win32,60.0024001,,,space,0.339,space,0.7577,space,0.3426,space,0.3253,space,0.6417,space,0.4254,space,0.4565,space,0.4186,space,0.4668,y,0,1.4237,0,49,49,49,1,,
,,,,,,,,,,,,,,,,,,,,,,,,,,,,,38,38_2,inclusive_gender_they,1,9,they,Ruth is angry because they lost the job yesterday.,Is Ruth peaceful?,no,0,Ruth,is,angry,because,they,lost,the,job,yesterday.,INC_J_BEG_012,001,2023-07-20_08h48.13.203,spr_english_2023_list1,2021.1.1,Win32,60.0024001,,,space,0.7404,space,0.3226,space,0.2832,space,0.3393,space,0.2724,space,0.2763,space,0.5251,space,0.4425,space,0.5404,n,0,1.2264,0,50,50,50,1,,
,,,,,,,,,,,,,,,,,,,,,,,,,,,,,5,5_1,neutral_gender_someone,1,9,masculine,Someone robbed me but he fled before I screamed.,Did a theft occur?,yes,1,Someone,robbed,me,but,he,fled,before,I,screamed.,INC_J_BEG_012,001,2023-07-20_08h48.13.203,spr_english_2023_list1,2021.1.1,Win32,60.0024001,,,space,0.7878,space,0.3598,space,0.5732,space,0.3947,space,0.3983,space,0.306,space,0.6618,space,0.4068,space,0.3586,y,0,1.7257,0,51,51,51,1,,
,,,,,,,,,,,,,,,,,,,,,,,,,,,,,59,NA,filler,1and2,9,NA,"Colorful balloons floated away, disappearing into the infinite sky.",Did the balloons have many colors?,,1,Colorful,balloons,floated,"away,",disappearing,into,the,infinite,sky.,INC_J_BEG_012,001,2023-07-20_08h48.13.203,spr_english_2023_list1,2021.1.1,Win32,60.0024001,,,space,0.6217,space,0.3743,space,0.9424,space,0.7371,space,0.504,space,0.3956,space,0.544,space,0.3761,space,0.3758,y,0,1.7897,0,52,52,52,1,,
,,,,,,,,,,,,,,,,,,,,,,,,,,,,,13,13_1,neutral_gender_someone,1,9,masculine,Someone filmed me but he stopped after I objected.,Did the person use a technological device?,yes,1,Someone,filmed,me,but,he,stopped,after,I,objected.,INC_J_BEG_012,001,2023-07-20_08h48.13.203,spr_english_2023_list1,2021.1.1,Win32,60.0024001,,,space,0.4386,space,0.3555,space,0.4073,space,0.5386,space,0.5106,space,0.523,space,0.6051,space,0.6408,space,1.651,y,0,1.9035,0,53,53,53,1,,
,,,,,,,,,,,,,,,,,,,,,,,,,,,,,40,40_2,inclusive_gender_they,1,9,they,Clara is relieved because they got a promotion yesterday.,Does Clara feel bad?,no,0,Clara,is,relieved,because,they,got,a,promotion,yesterday.,INC_J_BEG_012,001,2023-07-20_08h48.13.203,spr_english_2023_list1,2021.1.1,Win32,60.0024001,,,space,0.3754,space,0.3607,space,0.3078,space,1.0821,space,2.6339,space,0.1113,space,1.0926,space,0.9927,space,0.3761,n,0,1.3218,0,54,54,54,1,,
,,,,,,,,,,,,,,,,,,,,,,,,,,,,,25,25_2,inclusive_gender_reflexive,1,9,themself,Blake was fishing by themself at the riverbank yesterday.,Was Blake fishing?,yes,1,Blake,was,fishing,by,themself,at,the,riverbank,yesterday.,INC_J_BEG_012,001,2023-07-20_08h48.13.203,spr_english_2023_list1,2021.1.1,Win32,60.0024001,,,space,1.2553,space,0.3105,space,0.3604,space,0.5619,space,0.4314,space,0.3881,space,0.2729,space,0.3749,space,0.498,y,0,2.0598,0,55,55,55,1,,
,,,,,,,,,,,,,,,,,,,,,,,,,,,,,51,NA,filler,1and2,9,NA,"The old oak tree stood tall, casting shade below.",Was a big plant mentioned? ,,1,The,old,oak,tree,stood,"tall,",casting,shade,below.,INC_J_BEG_012,001,2023-07-20_08h48.13.203,spr_english_2023_list1,2021.1.1,Win32,60.0024001,,,space,0.5689,space,0.3841,space,1.0893,space,0.5055,space,0.7273,space,0.2913,space,0.3259,space,0.4233,space,0.4508,y,0,2.4374,0,56,56,56,1,,
,,,,,,,,,,,,,,,,,,,,,,,,,,,,,26,26_1,inclusive_gender_reflexive,1,9,himself,Mark was walking by himself in the park earlier.,Was Mark in the living room?,no,0,Mark,was,walking,by,himself,in,the,park,earlier.,INC_J_BEG_012,001,2023-07-20_08h48.13.203,spr_english_2023_list1,2021.1.1,Win32,60.0024001,,,space,0.5388,space,0.2942,space,0.2871,space,0.4387,space,0.3768,space,1.0888,space,0.2786,space,0.2766,space,0.4221,n,0,1.3047,0,57,57,57,1,,
,,,,,,,,,,,,,,,,,,,,,,,,,,,,,17,17_2,inclusive_gender_reflexive,1,9,themself,John was sitting by themself on the bench yesterday.,Was John on a bench?,yes,1,John,was,sitting,by,themself,on,the,bench,yesterday.,INC_J_BEG_012,001,2023-07-20_08h48.13.203,spr_english_2023_list1,2021.1.1,Win32,60.0024001,,,space,0.4415,space,0.2957,space,0.4054,space,0.6593,space,0.4746,space,0.3786,space,0.2794,space,0.7572,space,1.5217,y,0,1.3756,0,58,58,58,1,,
,,,,,,,,,,,,,,,,,,,,,,,,,,,,,8,8_2,neutral_gender_someone,1,9,neutral,Someone serenaded me and they stopped before I applauded.,Did the person dance?,no,0,Someone,serenaded,me,and,they,stopped,before,I,applauded.,INC_J_BEG_012,001,2023-07-20_08h48.13.203,spr_english_2023_list1,2021.1.1,Win32,60.0024001,,,space,0.6334,space,0.2909,space,1.0614,space,0.3906,space,0.2547,space,0.2994,space,0.4049,space,0.2888,space,0.4395,n,0,2.9726,0,59,59,59,1,,
,,,,,,,,,,,,,,,,,,,,,,,,,,,,,,,,,,,,,,,,,,,,,,,,INC_J_BEG_012,001,2023-07-20_08h48.13.203,spr_english_2023_list1,2021.1.1,Win32,60.0024001,,,,,,,,,,,,,,,,,,,,,,,,,,,,,y,4.2484
