key_resp.keys,key_resp.rt,key_resp_2.keys,key_resp_2.rt,key_resp_3.keys,key_resp_3.rt,key_resp_4.keys,key_resp_4.rt,key_resp_5.keys,key_resp_5.rt,key_resp_6.keys,key_resp_6.rt,key_resp_7.keys,key_resp_7.rt,key_resp_8.keys,key_resp_8.rt,key_resp_9.keys,key_resp_9.rt,key_resp_10.keys,key_resp_10.rt,key_resp_11.keys,key_resp_11.rt,key_resp_15.keys,key_resp_15.rt,trials_2.thisRepN,trials_2.thisTrialN,trials_2.thisN,trials_2.thisIndex,trials_2.ran,base_sentence_number,version,experiment,list,numb_words,gender,sentence,question,answer,CorrAns,w1,w2,w3,w4,w5,w6,w7,w8,w9,participant,session,date,expName,psychopyVersion,OS,frameRate,key_resp_16.keys,key_resp_16.rt,word1.keys,word1.rt,word2.keys,word2.rt,word3.keys,word3.rt,word4.keys,word4.rt,word5.keys,word5.rt,word6.keys,word6.rt,word7.keys,word7.rt,word8.keys,word8.rt,word9.keys,word9.rt,compquestion.keys,compquestion.corr,compquestion.rt,trials.thisRepN,trials.thisTrialN,trials.thisN,trials.thisIndex,trials.ran,endoftask.keys,endoftask.rt
space,0.0402,y,22.3028,space,4.8949,space,1.0014,space,0.7012,space,0.6724,space,0.6445,space,0.6372,space,0.613,space,0.6117,space,0.5935,n,18.8618,0,0,0,0,1,NA,NA,practica,NA,NA,NA,Rita is uncomfortable because it is very hot outside.,Is it cold?,no,0,Rita,is,uncomfortable,because,it,is,very,hot,outside.,ING_J_BEG_40 vicente,001,2023-11-23_16h16.44.222,spr_english_2023_list2,2021.1.1,Win32,59.60896519,,,,,,,,,,,,,,,,,,,,,,,,,,,,,,
,,,,space,3.5755,space,1.7662,space,1.3942,space,1.021,space,1.5672,space,0.9568,space,0.7834,space,0.9492,space,1.2996,n,7.4078,0,1,1,1,1,NA,NA,practica,NA,NA,NA,Peter was running by himself in the park yesterday.,Was Peter painting the wall?,no,0,Peter,was,running,by,himself,in,the,park,yesterday.,ING_J_BEG_40 vicente,001,2023-11-23_16h16.44.222,spr_english_2023_list2,2021.1.1,Win32,59.60896519,,,,,,,,,,,,,,,,,,,,,,,,,,,,,,
,,,,space,7.8392,space,0.9097,space,1.1412,space,0.8495,space,1.0466,space,1.0131,space,0.8477,space,0.9967,space,2.0089,n,37.4561,0,2,2,2,1,NA,NA,practica,NA,NA,NA,Hannah is watching tv because she is really bored.,Is Hannah in front of a screen?,yes,1,Hannah,is,watching,tv,because,she,is,really,bored.,ING_J_BEG_40 vicente,001,2023-11-23_16h16.44.222,spr_english_2023_list2,2021.1.1,Win32,59.60896519,,,,,,,,,,,,,,,,,,,,,,,,,,,,,,
,,,,,,,,,,,,,,,,,,,,,,,,,,,,,1,1_2,neutral_gender_someone,2,9,neutral,Someone called me but they stopped before I answered,Did the person try to communicate?,yes,1,Someone,called,me,but,they,stopped,before,I,answered.,ING_J_BEG_40 vicente,001,2023-11-23_16h16.44.222,spr_english_2023_list2,2021.1.1,Win32,59.60896519,space,13.5943,space,28.284,space,4.7503,space,2.7835,space,2.4345,space,2.7796,space,3.4075,space,2.2849,space,3.2808,space,2.1802,n,0,9.5639,0,0,0,0,1,,
,,,,,,,,,,,,,,,,,,,,,,,,,,,,,34,34_1,inclusive_gender_they,2,9,she,Mary is sad because she lost the dog earlier.,Did mary lose something?,no,0,Mary,is,sad,because,she,lost,the,dog,earlier.,ING_J_BEG_40 vicente,001,2023-11-23_16h16.44.222,spr_english_2023_list2,2021.1.1,Win32,59.60896519,,,space,3.3962,space,2.7792,space,4.1309,space,2.8967,space,3.1182,space,2.7,space,2.9822,space,3.0603,space,4.602,y,0,4.8203,0,1,1,1,1,,
,,,,,,,,,,,,,,,,,,,,,,,,,,,,,31,31_1,inclusive_gender_reflexive,2,9,himself,Troy was singing by himself in the shower yesterday.,Was Troy singing?,yes,1,Troy,was,singing,by,himself,in,the,shower,yesterday.,ING_J_BEG_40 vicente,001,2023-11-23_16h16.44.222,spr_english_2023_list2,2021.1.1,Win32,59.60896519,,,space,2.8627,space,2.37,space,3.032,space,2.2861,space,2.8961,space,2.3638,space,2.4009,space,3.703,space,2.0617,y,0,4.3485,0,2,2,2,1,,
,,,,,,,,,,,,,,,,,,,,,,,,,,,,,37,37_2,inclusive_gender_they,2,9,they,Emily is grateful because they got nice gifts yesterday.,Did Emily get presents?,yes,1,Emily,is,grateful,because,they,got,nice,gifts,yesterday.,ING_J_BEG_40 vicente,001,2023-11-23_16h16.44.222,spr_english_2023_list2,2021.1.1,Win32,59.60896519,,,space,4.9383,space,7.0311,space,3.2795,space,3.0799,space,3.4469,space,4.6507,space,3.1532,space,3.4322,space,4.0927,y,0,4.4156,0,3,3,3,1,,
,,,,,,,,,,,,,,,,,,,,,,,,,,,,,55,NA,filler,1and2,9,NA,The aroma of freshly brewed coffee filled the room.,Was the smell nice?,,1,The,aroma,of,freshly,brewed,coffee,filled,the,room.,ING_J_BEG_40 vicente,001,2023-11-23_16h16.44.222,spr_english_2023_list2,2021.1.1,Win32,59.60896519,,,space,11.4915,space,7.0705,space,2.5987,space,3.6322,space,3.6765,space,3.0804,space,2.6546,space,2.4011,space,3.8608,n,0,7.1859,0,4,4,4,1,,
,,,,,,,,,,,,,,,,,,,,,,,,,,,,,30,30_2,inclusive_gender_reflexive,2,9,themself,Scott was drinking by themself at the bar earlier.,Was Scott at his apartment?,no,0,Scott,was,drinking,by,themself,at,the,bar,earlier.,ING_J_BEG_40 vicente,001,2023-11-23_16h16.44.222,spr_english_2023_list2,2021.1.1,Win32,59.60896519,,,space,3.9067,space,2.2077,space,2.8659,space,4.1645,space,6.8542,space,3.7452,space,3.1219,space,2.8526,space,5.8643,n,0,4.8106,0,5,5,5,1,,
,,,,,,,,,,,,,,,,,,,,,,,,,,,,,14,14_1,neutral_gender_someone,2,9,masculine,Someone photographed me but he quit before I spoke.,Did someone take pictures?,yes,0,Someone,photographed,me,but,he,quit,before,I,spoke.,ING_J_BEG_40 vicente,001,2023-11-23_16h16.44.222,spr_english_2023_list2,2021.1.1,Win32,59.60896519,,,space,2.7217,space,3.1697,space,4.0807,space,3.1449,space,4.1692,space,6.3438,space,5.0963,space,2.4663,space,2.9336,y,0,8.861,0,6,6,6,1,,
,,,,,,,,,,,,,,,,,,,,,,,,,,,,,28,28_2,inclusive_gender_reflexive,2,9,themself,Tom was swimming by themself at the beach earlier.,Was Tom at the park?,no,0,Tom,was,swimming,by,themself,at,the,beach,earlier.,ING_J_BEG_40 vicente,001,2023-11-23_16h16.44.222,spr_english_2023_list2,2021.1.1,Win32,59.60896519,,,space,4.6883,space,4.7608,space,3.6479,space,7.4396,space,3.2441,space,3.0834,space,2.6192,space,6.1608,space,4.5377,n,0,5.4764,0,7,7,7,1,,
,,,,,,,,,,,,,,,,,,,,,,,,,,,,,49,NA,filler,1and2,9,NA,"The sun behind distant mountains, painting the nice sky.",Was the sun showing?,,1,The,sun,behind,distant,"mountains,",painting,the,nice,sky.,ING_J_BEG_40 vicente,001,2023-11-23_16h16.44.222,spr_english_2023_list2,2021.1.1,Win32,59.60896519,,,space,12.4598,space,10.8775,space,1.9963,space,2.7929,space,2.036,space,2.3409,space,5.7339,space,4.5725,space,3.488,y,0,5.9006,0,8,8,8,1,,
,,,,,,,,,,,,,,,,,,,,,,,,,,,,,38,38_1,inclusive_gender_they,2,9,she,Ruth is angry because she lost the job yesterday.,Is Ruth peaceful?,no,0,Ruth,is,angry,because,she,lost,the,job,yesterday.,ING_J_BEG_40 vicente,001,2023-11-23_16h16.44.222,spr_english_2023_list2,2021.1.1,Win32,59.60896519,,,space,9.3219,space,2.1713,space,5.6126,space,4.9013,space,4.6338,space,5.5753,space,7.7175,space,15.7274,space,9.3852,n,0,4.5451,0,9,9,9,1,,
,,,,,,,,,,,,,,,,,,,,,,,,,,,,,19,19_1,inclusive_gender_reflexive,2,9,himself,James was studying by himself in the library yesterday.,Was James at the library?,yes,1,James,was,studying,by,himself,in,the,library,yesterday.,ING_J_BEG_40 vicente,001,2023-11-23_16h16.44.222,spr_english_2023_list2,2021.1.1,Win32,59.60896519,,,space,107.9851,space,4.3183,space,3.2849,space,3.0426,space,2.1363,space,9.2076,space,2.2395,space,6.3447,space,1.799,y,0,3.985,0,10,10,10,1,,
,,,,,,,,,,,,,,,,,,,,,,,,,,,,,8,8_1,neutral_gender_someone,2,9,masculine,Someone serenaded me and he stopped before I applauded.,Did the person dance?,no,0,Someone,serenaded,me,and,he,stopped,before,I,applauded.,ING_J_BEG_40 vicente,001,2023-11-23_16h16.44.222,spr_english_2023_list2,2021.1.1,Win32,59.60896519,,,space,350.3164,space,2.3035,space,11.8009,space,2.5012,space,1.6359,space,2.5448,space,3.2075,space,2.5507,space,2.3771,n,0,9.1692,0,11,11,11,1,,
,,,,,,,,,,,,,,,,,,,,,,,,,,,,,32,32_2,inclusive_gender_reflexive,2,9,themself,Hugh was stretching by themself in the garden earlier.,Was Hugh in the attic?,no,0,Hugh,was,stretching,by,themself,in,the,garden,earlier.,ING_J_BEG_40 vicente,001,2023-11-23_16h16.44.222,spr_english_2023_list2,2021.1.1,Win32,59.60896519,,,space,10.1151,space,1.8521,space,2.3689,space,11.0393,space,2.9702,space,2.0699,space,2.2944,space,6.1093,space,5.6428,y,0,7.6879,0,12,12,12,1,,
,,,,,,,,,,,,,,,,,,,,,,,,,,,,,58,NA,filler,1and2,9,NA,"Scent of flowers wafted, enchanting with its delicate fragrance.",Did the flowers smell bad?,,0,Scent,of,flowers,"wafted,",enchanting,with,its,delicate,fragrance.,ING_J_BEG_40 vicente,001,2023-11-23_16h16.44.222,spr_english_2023_list2,2021.1.1,Win32,59.60896519,,,space,179.19,space,5.2017,space,6.6855,space,3.8724,space,4.6395,space,2.7534,space,5.1357,space,2.3119,space,3.2188,n,0,4.96,0,13,13,13,1,,
,,,,,,,,,,,,,,,,,,,,,,,,,,,,,17,17_1,inclusive_gender_reflexive,2,9,himself,John was sitting by himself on the bench yesterday.,Was John on a bench?,yes,1,John,was,sitting,by,himself,on,the,bench,yesterday.,ING_J_BEG_40 vicente,001,2023-11-23_16h16.44.222,spr_english_2023_list2,2021.1.1,Win32,59.60896519,,,space,5.715,space,2.6092,space,6.1848,space,2.7573,space,2.6926,space,3.3021,space,2.8295,space,3.0349,space,6.9196,n,0,4.7701,0,14,14,14,1,,
,,,,,,,,,,,,,,,,,,,,,,,,,,,,,5,5_2,neutral_gender_someone,2,9,neutral,Someone robbed me but they fled before I screamed.,Did a theft occur?,yes,1,Someone,robbed,me,but,they,fled,before,I,screamed.,ING_J_BEG_40 vicente,001,2023-11-23_16h16.44.222,spr_english_2023_list2,2021.1.1,Win32,59.60896519,,,space,6.5429,space,7.7119,space,2.9352,space,3.1925,space,8.5512,space,1.3107,space,4.3839,space,5.0843,space,3.5319,y,0,14.6315,0,15,15,15,1,,
,,,,,,,,,,,,,,,,,,,,,,,,,,,,,7,7_2,neutral_gender_someone,2,9,neutral,Someone threatened me but they ran before I reacted.,Was there a threat?,yes,1,Someone,threatened,me,but,they,ran,before,I,reacted.,ING_J_BEG_40 vicente,001,2023-11-23_16h16.44.222,spr_english_2023_list2,2021.1.1,Win32,59.60896519,,,space,4.237,space,4.027,space,3.9612,space,4.8508,space,2.7822,space,5.9104,space,3.9282,space,2.8552,space,9.1984,n,0,4.62,0,16,16,16,1,,
,,,,,,,,,,,,,,,,,,,,,,,,,,,,,26,26_2,inclusive_gender_reflexive,2,9,themself,Mark was walking by themself in the park earlier.,Was Mark in the living room?,no,0,Mark,was,walking,by,themself,in,the,park,earlier.,ING_J_BEG_40 vicente,001,2023-11-23_16h16.44.222,spr_english_2023_list2,2021.1.1,Win32,59.60896519,,,space,174.0239,space,0.6107,space,0.3694,space,0.2949,space,0.2915,space,0.2865,space,0.2748,space,0.2601,space,0.2856,n,0,0.9993,0,17,17,17,1,,
,,,,,,,,,,,,,,,,,,,,,,,,,,,,,44,44_1,inclusive_gender_they,2,9,she,Alice is hopeful because she had good luck yesterday.,Is Alice sad?,no,0,Alice,is,hopeful,because,she,had,good,luck,yesterday.,ING_J_BEG_40 vicente,001,2023-11-23_16h16.44.222,spr_english_2023_list2,2021.1.1,Win32,59.60896519,,,space,0.3558,space,0.2072,space,0.1639,space,0.1687,space,0.1508,space,0.1785,space,0.3017,space,0.3227,space,0.3186,y,0,0.796,0,18,18,18,1,,
,,,,,,,,,,,,,,,,,,,,,,,,,,,,,52,NA,filler,1and2,9,NA,"I awaited eagerly, anticipating the arrival of the morning.",Was the person waiting for something?,,1,I,awaited,"eagerly,",anticipating,the,arrival,of,the,morning.,ING_J_BEG_40 vicente,001,2023-11-23_16h16.44.222,spr_english_2023_list2,2021.1.1,Win32,59.60896519,,,space,0.6533,space,0.1684,space,0.1471,space,0.1773,space,0.1688,space,0.1451,space,0.1561,space,0.1516,space,0.374,n,0,0.9406,0,19,19,19,1,,
,,,,,,,,,,,,,,,,,,,,,,,,,,,,,27,27_1,inclusive_gender_reflexive,2,9,himself,Paul was drawing by himself in the attic yesterday.,Was Paul drawing?,yes,1,Paul,was,drawing,by,himself,in,the,attic,yesterday.,ING_J_BEG_40 vicente,001,2023-11-23_16h16.44.222,spr_english_2023_list2,2021.1.1,Win32,59.60896519,,,space,0.3019,space,0.1633,space,0.1846,space,0.1523,space,0.1301,space,0.1462,space,0.1677,space,0.1368,space,0.1629,y,0,0.8646,0,20,20,20,1,,
,,,,,,,,,,,,,,,,,,,,,,,,,,,,,16,16_1,neutral_gender_someone,2,9,masculine,Someone passed me and he sped before I noticed.,Was everybody going slow?,no,0,Someone,passed,me,and,he,sped,before,I,noticed.,ING_J_BEG_40 vicente,001,2023-11-23_16h16.44.222,spr_english_2023_list2,2021.1.1,Win32,59.60896519,,,space,0.3717,space,0.1681,space,0.1634,space,0.1583,space,0.1684,space,0.1521,space,0.159,space,0.1874,space,0.4299,n,0,0.7881,0,21,21,21,1,,
,,,,,,,,,,,,,,,,,,,,,,,,,,,,,53,NA,filler,1and2,9,NA,"Waves crashed against the shore, creating a soothing rhythm.",Was the rhythm violent?,,0,Waves,crashed,against,the,"shore,",creating,a,soothing,rhythm.,ING_J_BEG_40 vicente,001,2023-11-23_16h16.44.222,spr_english_2023_list2,2021.1.1,Win32,59.60896519,,,space,0.2389,space,0.1715,space,0.1556,space,0.141,space,0.1461,space,0.1466,space,0.157,space,0.1679,space,0.1767,y,0,0.8209,0,22,22,22,1,,
,,,,,,,,,,,,,,,,,,,,,,,,,,,,,42,42_1,inclusive_gender_they,2,9,she,Nancy is upset because she fell on stage yesterday.,Is Nancy calm?,no,0,Nancy,is,upset,because,she,fell,on,stage,yesterday.,ING_J_BEG_40 vicente,001,2023-11-23_16h16.44.222,spr_english_2023_list2,2021.1.1,Win32,59.60896519,,,space,0.3718,space,0.16,space,0.1536,space,0.143,space,0.1406,space,0.121,space,0.1516,space,0.1523,space,0.1517,n,0,0.8942,0,23,23,23,1,,
,,,,,,,,,,,,,,,,,,,,,,,,,,,,,4,4_1,neutral_gender_someone,2,9,masculine,Someone punched me but he ran before I noticed.,Was everybody involved peaceful?,no,0,Someone,punched,me,but,he,ran,before,I,noticed.,ING_J_BEG_40 vicente,001,2023-11-23_16h16.44.222,spr_english_2023_list2,2021.1.1,Win32,59.60896519,,,space,0.2292,space,0.1554,space,0.1696,space,0.1542,space,0.1542,space,0.138,space,0.1563,space,0.1509,space,0.1462,y,0,0.8401,0,24,24,24,1,,
,,,,,,,,,,,,,,,,,,,,,,,,,,,,,40,40_1,inclusive_gender_they,2,9,she,Clara is relieved because she got a promotion yesterday.,Does Clara feel bad?,no,0,Clara,is,relieved,because,she,got,a,promotion,yesterday.,ING_J_BEG_40 vicente,001,2023-11-23_16h16.44.222,spr_english_2023_list2,2021.1.1,Win32,59.60896519,,,space,0.3264,space,0.1632,space,0.1588,space,0.1454,space,0.1352,space,0.1373,space,0.1389,space,0.1363,space,0.459,y,0,0.603,0,25,25,25,1,,
,,,,,,,,,,,,,,,,,,,,,,,,,,,,,23,23_1,inclusive_gender_reflexive,2,9,himself,Ben was dancing by himself in the kitchen yesterday.,Was Ben in the kitchen?,yes,1,Ben,was,dancing,by,himself,in,the,kitchen,yesterday.,ING_J_BEG_40 vicente,001,2023-11-23_16h16.44.222,spr_english_2023_list2,2021.1.1,Win32,59.60896519,,,space,0.3387,space,0.1608,space,0.1535,space,0.141,space,0.157,space,0.142,space,0.144,space,0.1392,space,0.151,y,0,1.2517,0,26,26,26,1,,
,,,,,,,,,,,,,,,,,,,,,,,,,,,,,15,15_2,neutral_gender_someone,2,9,neutral,Someone pranked me but they ran before I reacted.,Was a joke mentioned?,yes,1,Someone,pranked,me,but,they,ran,before,I,reacted.,ING_J_BEG_40 vicente,001,2023-11-23_16h16.44.222,spr_english_2023_list2,2021.1.1,Win32,59.60896519,,,space,0.2177,space,0.136,space,0.1454,space,0.1534,space,0.1401,space,0.1521,space,0.152,space,0.1517,space,0.144,n,0,0.385,0,27,27,27,1,,
,,,,,,,,,,,,,,,,,,,,,,,,,,,,,3,3_2,neutral_gender_someone,2,9,neutral,Someone hit me but they ran before I reacted,Was there physical violence?,yes,1,Someone,hit,me,but,they,ran,before,I,reacted.,ING_J_BEG_40 vicente,001,2023-11-23_16h16.44.222,spr_english_2023_list2,2021.1.1,Win32,59.60896519,,,space,0.264,space,0.1385,space,0.1518,space,0.1406,space,0.1516,space,0.1588,space,0.1622,space,0.1284,space,0.1228,y,0,1.0591,0,28,28,28,1,,
,,,,,,,,,,,,,,,,,,,,,,,,,,,,,50,NA,filler,1and2,9,NA,"He smiled warmly, extending a hand in friendly greeting.",Did someone fall?,,0,He,smiled,"warmly,",extending,a,hand,in,friendly,greeting.,ING_J_BEG_40 vicente,001,2023-11-23_16h16.44.222,spr_english_2023_list2,2021.1.1,Win32,59.60896519,,,space,0.2195,space,0.1533,space,0.1526,space,0.1534,space,0.1563,space,0.1433,space,0.138,space,0.1453,space,0.1467,n,0,0.355,0,29,29,29,1,,
,,,,,,,,,,,,,,,,,,,,,,,,,,,,,41,41_2,inclusive_gender_they,2,9,they,Laura is happy because they passed the exam earlier.,Is Laura in a good mood?,yes,1,Laura,is,happy,because,they,passed,the,exam,earlier.,ING_J_BEG_40 vicente,001,2023-11-23_16h16.44.222,spr_english_2023_list2,2021.1.1,Win32,59.60896519,,,space,0.2866,space,0.153,space,0.1365,space,0.1352,space,0.1362,space,0.1413,space,0.1527,space,0.1244,space,0.1369,y,0,0.3926,0,30,30,30,1,,
,,,,,,,,,,,,,,,,,,,,,,,,,,,,,54,NA,filler,1and2,9,NA,"She danced a lot, her movements resembling pure poetry.",Was it an unpleasant dance?,,0,She,danced,a,"lot,",her,movements,resembling,pure,poetry.,ING_J_BEG_40 vicente,001,2023-11-23_16h16.44.222,spr_english_2023_list2,2021.1.1,Win32,59.60896519,,,space,0.2917,space,0.1586,space,0.1381,space,0.1532,space,0.1365,space,0.153,space,0.1455,space,0.1527,space,0.15,n,0,0.4855,0,31,31,31,1,,
,,,,,,,,,,,,,,,,,,,,,,,,,,,,,24,24_2,inclusive_gender_reflexive,2,9,themself,Jake was strolling by themself at the park earlier.,Was Jake swimming?,no,0,Jake,was,strolling,by,themself,at,the,park,earlier.,ING_J_BEG_40 vicente,001,2023-11-23_16h16.44.222,spr_english_2023_list2,2021.1.1,Win32,59.60896519,,,space,0.5961,space,0.1702,space,0.1519,space,0.1606,space,0.1768,space,0.173,space,0.1548,space,0.1577,space,0.1468,n,0,0.3865,0,32,32,32,1,,
,,,,,,,,,,,,,,,,,,,,,,,,,,,,,46,46_1,inclusive_gender_they,2,9,she,Kate is tipsy because she had two drinks earlier.,Is Kate sober?,no,0,Kate,is,tipsy,because,she,had,two,drinks,earlier.,ING_J_BEG_40 vicente,001,2023-11-23_16h16.44.222,spr_english_2023_list2,2021.1.1,Win32,59.60896519,,,space,0.2871,space,0.1673,space,0.1694,space,0.1692,space,0.1684,space,0.1853,space,0.1523,space,0.1449,space,0.17,y,0,0.3754,0,33,33,33,1,,
,,,,,,,,,,,,,,,,,,,,,,,,,,,,,25,25_1,inclusive_gender_reflexive,2,9,himself,Blake was fishing by himself at the riverbank yesterday.,Was Blake fishing?,yes,1,Blake,was,fishing,by,himself,at,the,riverbank,yesterday.,ING_J_BEG_40 vicente,001,2023-11-23_16h16.44.222,spr_english_2023_list2,2021.1.1,Win32,59.60896519,,,space,0.2462,space,0.1644,space,0.1686,space,0.1522,space,0.1367,space,0.1304,space,0.1438,space,0.5865,space,0.3025,n,0,0.6532,0,34,34,34,1,,
,,,,,,,,,,,,,,,,,,,,,,,,,,,,,43,43_2,inclusive_gender_they,2,9,they,Rose is content because they won an award earlier.,Is Rose happy?,yes,1,Rose,is,content,because,they,won,an,award,earlier.,ING_J_BEG_40 vicente,001,2023-11-23_16h16.44.222,spr_english_2023_list2,2021.1.1,Win32,59.60896519,,,space,0.438,space,0.1466,space,0.153,space,0.1369,space,0.1067,space,0.1376,space,0.1355,space,0.1095,space,0.1198,y,0,0.359,0,35,35,35,1,,
,,,,,,,,,,,,,,,,,,,,,,,,,,,,,51,NA,filler,1and2,9,NA,"The old oak tree stood tall, casting shade below.",Was a big plant mentioned? ,,1,The,old,oak,tree,stood,"tall,",casting,shade,below.,ING_J_BEG_40 vicente,001,2023-11-23_16h16.44.222,spr_english_2023_list2,2021.1.1,Win32,59.60896519,,,space,0.2582,space,0.1474,space,0.1739,space,0.1363,space,0.1528,space,0.1371,space,0.1462,space,0.1531,space,0.1532,n,0,0.436,0,36,36,36,1,,
,,,,,,,,,,,,,,,,,,,,,,,,,,,,,22,22_2,inclusive_gender_reflexive,2,9,themself,Max was painting by themself in the studio earlier.,Was Max watching tv?,no,0,Max,was,painting,by,themself,in,the,studio,earlier.,ING_J_BEG_40 vicente,001,2023-11-23_16h16.44.222,spr_english_2023_list2,2021.1.1,Win32,59.60896519,,,space,0.3801,space,0.1698,space,0.1414,space,0.1535,space,0.1388,space,0.1458,space,0.1722,space,0.1548,space,0.1692,y,0,0.3967,0,37,37,37,1,,
,,,,,,,,,,,,,,,,,,,,,,,,,,,,,33,33_2,inclusive_gender_they,2,9,they,Sara is happy because they found new friends yesterday.,Is Sara in a good mood?,yes,1,Sara,is,happy,because,they,found,new,friends,yesterday.,ING_J_BEG_40 vicente,001,2023-11-23_16h16.44.222,spr_english_2023_list2,2021.1.1,Win32,59.60896519,,,space,0.2903,space,0.163,space,0.1674,space,0.1589,space,0.1542,space,0.1692,space,0.1699,space,0.1703,space,0.1779,y,0,0.6728,0,38,38,38,1,,
,,,,,,,,,,,,,,,,,,,,,,,,,,,,,9,9_2,neutral_gender_someone,2,9,neutral,Someone helped me but they left before I finished.,Did the person offer some help?,yes,1,Someone,helped,me,but,they,left,before,I,finished.,ING_J_BEG_40 vicente,001,2023-11-23_16h16.44.222,spr_english_2023_list2,2021.1.1,Win32,59.60896519,,,space,0.2537,space,0.1686,space,0.1847,space,0.1555,space,0.2271,space,0.2347,space,0.3531,space,0.8299,space,0.4206,n,0,1.3071,0,39,39,39,1,,
,,,,,,,,,,,,,,,,,,,,,,,,,,,,,10,10_1,neutral_gender_someone,2,9,masculine,Someone shushed me but he stopped before I noticed.,Was the person happy to hear a voice?,no,0,Someone,shushed,me,but,he,stopped,before,I,noticed.,ING_J_BEG_40 vicente,001,2023-11-23_16h16.44.222,spr_english_2023_list2,2021.1.1,Win32,59.60896519,,,space,0.9701,space,0.5635,space,0.4709,space,0.4617,space,0.4552,space,0.484,space,0.4991,space,0.4954,space,0.5847,y,0,1.0759,0,40,40,40,1,,
,,,,,,,,,,,,,,,,,,,,,,,,,,,,,11,11_2,neutral_gender_someone,2,9,neutral,Someone pushed me but they tripped after I fell.,Was there any sort of physical violence?,yes,1,Someone,pushed,me,but,they,tripped,after,I,fell.,ING_J_BEG_40 vicente,001,2023-11-23_16h16.44.222,spr_english_2023_list2,2021.1.1,Win32,59.60896519,,,space,1.5858,space,0.4046,space,0.2289,space,0.2522,space,0.2436,space,0.2557,space,0.2515,space,0.2471,space,0.2687,n,0,1.0863,0,41,41,41,1,,
,,,,,,,,,,,,,,,,,,,,,,,,,,,,,39,39_2,inclusive_gender_they,2,9,they,Judy is confused because they lost the map ealier.,Did Judy lose something?,yes,1,Judy,is,confused,because,they,lost,the,map,ealier.,ING_J_BEG_40 vicente,001,2023-11-23_16h16.44.222,spr_english_2023_list2,2021.1.1,Win32,59.60896519,,,space,0.693,space,0.6196,space,0.6062,space,0.6526,space,0.7012,space,0.645,space,0.661,space,0.6306,space,0.6396,y,0,0.9183,0,42,42,42,1,,
,,,,,,,,,,,,,,,,,,,,,,,,,,,,,57,NA,filler,1and2,9,NA,"The child's laughter echoed, bringing joy to the playground.",Was the child happy?,,1,The,child's,laughter,"echoed,",bringing,joy,to,the,playground.,ING_J_BEG_40 vicente,001,2023-11-23_16h16.44.222,spr_english_2023_list2,2021.1.1,Win32,59.60896519,,,space,0.6011,space,0.3293,space,0.3354,space,0.3188,space,0.3211,space,0.3366,space,0.3363,space,0.3192,space,0.3019,n,0,0.7532,0,43,43,43,1,,
,,,,,,,,,,,,,,,,,,,,,,,,,,,,,21,21_1,inclusive_gender_reflexive,2,9,himself,Jack was cooking by himself in the kitchen yesterday.,Was Jack in the kitchen?,yes,1,Jack,was,cooking,by,himself,in,the,kitchen,yesterday.,ING_J_BEG_40 vicente,001,2023-11-23_16h16.44.222,spr_english_2023_list2,2021.1.1,Win32,59.60896519,,,space,0.3691,space,0.3079,space,0.3188,space,0.3005,space,0.2955,space,0.304,space,0.2569,space,0.3086,space,0.2853,y,0,0.7963,0,44,44,44,1,,
,,,,,,,,,,,,,,,,,,,,,,,,,,,,,35,35_2,inclusive_gender_they,2,9,they,Susan is joyful because they won the lottery yesterday.,Is Susan in a good mood?,yes,1,Susan,is,joyful,because,they,won,the,lottery,yesterday.,ING_J_BEG_40 vicente,001,2023-11-23_16h16.44.222,spr_english_2023_list2,2021.1.1,Win32,59.60896519,,,space,0.5553,space,0.2124,space,0.2025,space,0.2082,space,0.2196,space,0.2081,space,0.2189,space,0.205,space,0.2404,n,0,0.9516,0,45,45,45,1,,
,,,,,,,,,,,,,,,,,,,,,,,,,,,,,36,36_1,inclusive_gender_they,2,9,she,Helen is anxious because she dread the presentation earlier.,Did Helen's presentation go well?,no,0,Helen,is,anxious,because,she,dread,the,presentation,earlier.,ING_J_BEG_40 vicente,001,2023-11-23_16h16.44.222,spr_english_2023_list2,2021.1.1,Win32,59.60896519,,,space,0.3559,space,0.1915,space,0.2182,space,0.2052,space,0.1921,space,0.2116,space,0.2289,space,0.2026,space,0.22,y,0,1.0245,0,46,46,46,1,,
,,,,,,,,,,,,,,,,,,,,,,,,,,,,,56,NA,filler,1and2,9,NA,"They went on an exciting trip, embracing their destiny.",Did they stay home?,,0,They,went,on,an,exciting,"trip,",embracing,their,destiny.,ING_J_BEG_40 vicente,001,2023-11-23_16h16.44.222,spr_english_2023_list2,2021.1.1,Win32,59.60896519,,,space,0.4194,space,0.1686,space,0.1526,space,0.136,space,0.151,space,0.1349,space,0.1509,space,0.1312,space,0.152,n,0,0.6855,0,47,47,47,1,,
,,,,,,,,,,,,,,,,,,,,,,,,,,,,,2,2_1,neutral_gender_someone,2,9,masculine,Someone warned me and he helped before I fell.,Did everybody maintain stability?,no,0,Someone,warned,me,and,he,helped,before,I,fell.,ING_J_BEG_40 vicente,001,2023-11-23_16h16.44.222,spr_english_2023_list2,2021.1.1,Win32,59.60896519,,,space,0.2053,space,0.1507,space,0.1565,space,0.1419,space,0.1428,space,0.1307,space,0.1362,space,0.1206,space,0.1206,y,0,0.9127,0,48,48,48,1,,
,,,,,,,,,,,,,,,,,,,,,,,,,,,,,45,45_2,inclusive_gender_they,2,9,they,Patricia is upset because they missed the bus earlier.,Is Patricia in a bad mood?,yes,1,Patricia,is,upset,because,they,missed,the,bus,earlier.,ING_J_BEG_40 vicente,001,2023-11-23_16h16.44.222,spr_english_2023_list2,2021.1.1,Win32,59.60896519,,,space,0.2966,space,0.1567,space,0.1387,space,0.127,space,0.1366,space,0.1242,space,0.1227,space,0.1189,space,0.1133,n,0,0.7248,0,49,49,49,1,,
,,,,,,,,,,,,,,,,,,,,,,,,,,,,,29,29_1,inclusive_gender_reflexive,2,9,himself,Kyle was cycling by himself on the trail yesterday.,Was Kyle on the trail?,yes,1,Kyle,was,cycling,by,himself,on,the,trail,yesterday.,ING_J_BEG_40 vicente,001,2023-11-23_16h16.44.222,spr_english_2023_list2,2021.1.1,Win32,59.60896519,,,space,0.2236,space,0.1465,space,0.1381,space,0.1118,space,0.1374,space,0.1197,space,0.1335,space,0.1055,space,0.1024,y,0,0.6533,0,50,50,50,1,,
,,,,,,,,,,,,,,,,,,,,,,,,,,,,,59,NA,filler,1and2,9,NA,"Colorful balloons floated away, disappearing into the infinite sky.",Did the balloons have many colors?,,1,Colorful,balloons,floated,"away,",disappearing,into,the,infinite,sky.,ING_J_BEG_40 vicente,001,2023-11-23_16h16.44.222,spr_english_2023_list2,2021.1.1,Win32,59.60896519,,,space,0.2456,space,0.1334,space,0.1358,space,0.1086,space,0.1222,space,0.139,space,0.1504,space,0.1349,space,0.1424,y,0,0.5782,0,51,51,51,1,,
,,,,,,,,,,,,,,,,,,,,,,,,,,,,,20,20_2,inclusive_gender_reflexive,2,9,themself,Mike was jogging by themself in the park earlier.,Was Mike sleeping?,no,0,Mike,was,jogging,by,themself,in,the,park,earlier.,ING_J_BEG_40 vicente,001,2023-11-23_16h16.44.222,spr_english_2023_list2,2021.1.1,Win32,59.60896519,,,space,0.5186,space,0.1462,space,0.1437,space,0.1512,space,0.1391,space,0.1346,space,0.1507,space,0.1235,space,0.1555,n,0,0.7839,0,52,52,52,1,,
,,,,,,,,,,,,,,,,,,,,,,,,,,,,,48,48_1,inclusive_gender_they,2,9,she,Martha is tired because she read two novels earlier.,Does Martha have a lot of energy?,no,0,Martha,is,tired,because,she,read,two,novels,earlier.,ING_J_BEG_40 vicente,001,2023-11-23_16h16.44.222,spr_english_2023_list2,2021.1.1,Win32,59.60896519,,,space,0.2368,space,0.1385,space,0.1458,space,0.1376,space,0.1213,space,0.1432,space,0.1411,space,0.1675,space,0.2452,n,0,86.8624,0,53,53,53,1,,
,,,,,,,,,,,,,,,,,,,,,,,,,,,,,6,6_1,neutral_gender_someone,2,9,masculine,Someone kissed me and he smiled before I blushed.,Did someone steal a pencil?,no,0,Someone,kissed,me,and,he,smiled,before,I,blushed.,ING_J_BEG_40 vicente,001,2023-11-23_16h16.44.222,spr_english_2023_list2,2021.1.1,Win32,59.60896519,,,space,1.7141,space,0.1654,space,0.1669,space,0.123,space,0.1113,space,0.1887,space,0.5312,space,0.0605,space,0.1557,y,0,0.9814,0,54,54,54,1,,
,,,,,,,,,,,,,,,,,,,,,,,,,,,,,18,18_2,inclusive_gender_reflexive,2,9,themself,Luke was reading by themself on the couch earlier.,Was Luke painting?,no,0,Luke,was,reading,by,themself,on,the,couch,earlier.,ING_J_BEG_40 vicente,001,2023-11-23_16h16.44.222,spr_english_2023_list2,2021.1.1,Win32,59.60896519,,,space,0.3121,space,0.1523,space,0.0726,space,0.2306,space,0.1516,space,0.2234,space,0.2517,space,0.2718,space,0.1833,n,0,0.634,0,55,55,55,1,,
,,,,,,,,,,,,,,,,,,,,,,,,,,,,,60,NA,filler,1and2,9,NA,"Soft raindrops tapped gently, creating a rhythmic melody outside.",Was it a sunny day?,,0,Soft,raindrops,tapped,"gently,",creating,a,rhythmic,melody,outside.,ING_J_BEG_40 vicente,001,2023-11-23_16h16.44.222,spr_english_2023_list2,2021.1.1,Win32,59.60896519,,,space,0.2323,space,0.15,space,0.1063,space,0.1871,space,0.1669,space,0.0703,space,0.1787,space,0.1543,space,0.1633,y,0,0.6648,0,56,56,56,1,,
,,,,,,,,,,,,,,,,,,,,,,,,,,,,,47,47_2,inclusive_gender_they,2,9,they,Jane is happy because they won the game earlier.,Did Jane win something?,yes,1,Jane,is,happy,because,they,won,the,game,earlier.,ING_J_BEG_40 vicente,001,2023-11-23_16h16.44.222,spr_english_2023_list2,2021.1.1,Win32,59.60896519,,,space,0.2719,space,0.0983,space,0.1849,space,0.2408,space,0.213,space,0.1455,space,0.1564,space,0.1655,space,0.1478,n,0,0.6027,0,57,57,57,1,,
,,,,,,,,,,,,,,,,,,,,,,,,,,,,,12,12_1,neutral_gender_someone,2,9,masculine,Someone scared me and he ran after I screamed.,Did the person write a note?,no,0,Someone,scared,me,and,he,ran,after,I,screamed.,ING_J_BEG_40 vicente,001,2023-11-23_16h16.44.222,spr_english_2023_list2,2021.1.1,Win32,59.60896519,,,space,0.2128,space,0.0883,space,0.163,space,0.182,space,0.2028,space,0.1663,space,0.482,space,0.142,space,0.1482,y,0,0.7572,0,58,58,58,1,,
,,,,,,,,,,,,,,,,,,,,,,,,,,,,,13,13_2,neutral_gender_someone,2,9,neutral,Someone filmed me but they stopped after I objected.,Did the person use a technological device?,yes,1,Someone,filmed,me,but,they,stopped,after,I,objected.,ING_J_BEG_40 vicente,001,2023-11-23_16h16.44.222,spr_english_2023_list2,2021.1.1,Win32,59.60896519,,,space,0.342,space,0.1445,space,0.1609,space,0.1308,space,0.0998,space,0.1149,space,0.0882,space,0.125,space,0.1275,n,0,0.7674,0,59,59,59,1,,
,,,,,,,,,,,,,,,,,,,,,,,,,,,,,,,,,,,,,,,,,,,,,,,,ING_J_BEG_40 vicente,001,2023-11-23_16h16.44.222,spr_english_2023_list2,2021.1.1,Win32,59.60896519,,,,,,,,,,,,,,,,,,,,,,,,,,,,,space,0.002
