key_resp.keys,key_resp.rt,key_resp_2.keys,key_resp_2.rt,key_resp_3.keys,key_resp_3.rt,key_resp_4.keys,key_resp_4.rt,key_resp_5.keys,key_resp_5.rt,key_resp_6.keys,key_resp_6.rt,key_resp_7.keys,key_resp_7.rt,key_resp_8.keys,key_resp_8.rt,key_resp_9.keys,key_resp_9.rt,key_resp_10.keys,key_resp_10.rt,key_resp_11.keys,key_resp_11.rt,key_resp_15.keys,key_resp_15.rt,trials_2.thisRepN,trials_2.thisTrialN,trials_2.thisN,trials_2.thisIndex,trials_2.ran,base_sentence_number,version,experiment,list,numb_words,gender,sentence,question,answer,CorrAns,w1,w2,w3,w4,w5,w6,w7,w8,w9,participant,session,date,expName,psychopyVersion,OS,frameRate,key_resp_16.keys,key_resp_16.rt,word1.keys,word1.rt,word2.keys,word2.rt,word3.keys,word3.rt,word4.keys,word4.rt,word5.keys,word5.rt,word6.keys,word6.rt,word7.keys,word7.rt,word8.keys,word8.rt,word9.keys,word9.rt,compquestion.keys,compquestion.corr,compquestion.rt,trials.thisRepN,trials.thisTrialN,trials.thisN,trials.thisIndex,trials.ran,endoftask.keys,endoftask.rt
space,33.7256,y,0.7667,space,6.5719,space,1.0018,space,0.9986,space,0.7565,space,0.5878,space,0.4036,space,0.4895,space,0.7172,space,1.1101,n,3.521,0,0,0,0,1,NA,NA,practica,NA,NA,NA,Rita is uncomfortable because it is very hot outside.,Is it cold?,no,0,Rita,is,uncomfortable,because,it,is,very,hot,outside.,ADV_EN_24,001,2023-08-30_11h33.17.148,spr_english_2023_list2,2021.1.1,Win32,59.89817311,,,,,,,,,,,,,,,,,,,,,,,,,,,,,,
,,,,space,0.8617,space,0.3935,space,0.3428,space,0.8243,space,0.5682,space,0.4379,space,0.4032,space,0.4686,space,0.6748,n,3.0887,0,1,1,1,1,NA,NA,practica,NA,NA,NA,Peter was running by himself in the park yesterday.,Was Peter painting the wall?,no,0,Peter,was,running,by,himself,in,the,park,yesterday.,ADV_EN_24,001,2023-08-30_11h33.17.148,spr_english_2023_list2,2021.1.1,Win32,59.89817311,,,,,,,,,,,,,,,,,,,,,,,,,,,,,,
,,,,space,0.9273,space,0.4795,space,0.4758,space,0.4248,space,0.4038,space,0.4132,space,0.4851,space,0.5408,space,0.5101,y,3.3358,0,2,2,2,1,NA,NA,practica,NA,NA,NA,Hannah is watching tv because she is really bored.,Is Hannah in front of a screen?,yes,1,Hannah,is,watching,tv,because,she,is,really,bored.,ADV_EN_24,001,2023-08-30_11h33.17.148,spr_english_2023_list2,2021.1.1,Win32,59.89817311,,,,,,,,,,,,,,,,,,,,,,,,,,,,,,
,,,,,,,,,,,,,,,,,,,,,,,,,,,,,1,1_2,neutral_gender_someone,2,9,neutral,Someone called me but they stopped before I answered,Did the person try to communicate?,yes,1,Someone,called,me,but,they,stopped,before,I,answered.,ADV_EN_24,001,2023-08-30_11h33.17.148,spr_english_2023_list2,2021.1.1,Win32,59.89817311,space,5.8724,space,0.8524,space,0.7139,space,0.4101,space,0.4733,space,0.478,space,0.567,space,0.5267,space,0.5929,space,0.5443,y,0,13.6005,0,0,0,0,1,,
,,,,,,,,,,,,,,,,,,,,,,,,,,,,,34,34_1,inclusive_gender_they,2,9,she,Mary is sad because she lost the dog earlier.,Did mary lose something?,no,0,Mary,is,sad,because,she,lost,the,dog,earlier.,ADV_EN_24,001,2023-08-30_11h33.17.148,spr_english_2023_list2,2021.1.1,Win32,59.89817311,,,space,0.8358,space,0.568,space,0.5267,space,0.4949,space,0.603,space,0.6231,space,0.4852,space,0.5684,space,0.6481,y,0,1.9368,0,1,1,1,1,,
,,,,,,,,,,,,,,,,,,,,,,,,,,,,,31,31_1,inclusive_gender_reflexive,2,9,himself,Troy was singing by himself in the shower yesterday.,Was Troy singing?,yes,1,Troy,was,singing,by,himself,in,the,shower,yesterday.,ADV_EN_24,001,2023-08-30_11h33.17.148,spr_english_2023_list2,2021.1.1,Win32,59.89817311,,,space,0.7033,space,0.6688,space,0.6362,space,0.7102,space,0.9756,space,0.4465,space,0.4033,space,0.4349,space,0.4639,y,0,2.3482,0,2,2,2,1,,
,,,,,,,,,,,,,,,,,,,,,,,,,,,,,37,37_2,inclusive_gender_they,2,9,they,Emily is grateful because they got nice gifts yesterday.,Did Emily get presents?,yes,1,Emily,is,grateful,because,they,got,nice,gifts,yesterday.,ADV_EN_24,001,2023-08-30_11h33.17.148,spr_english_2023_list2,2021.1.1,Win32,59.89817311,,,space,0.7373,space,0.3792,space,0.4908,space,0.4616,space,0.6021,space,0.4879,space,0.5059,space,0.4125,space,0.5175,y,0,2.9722,0,3,3,3,1,,
,,,,,,,,,,,,,,,,,,,,,,,,,,,,,55,NA,filler,1and2,9,NA,The aroma of freshly brewed coffee filled the room.,Was the smell nice?,,1,The,aroma,of,freshly,brewed,coffee,filled,the,room.,ADV_EN_24,001,2023-08-30_11h33.17.148,spr_english_2023_list2,2021.1.1,Win32,59.89817311,,,space,0.7941,space,0.4968,space,0.3958,space,0.4184,space,0.4014,space,0.6535,space,0.6264,space,0.5595,space,0.8063,y,0,2.3381,0,4,4,4,1,,
,,,,,,,,,,,,,,,,,,,,,,,,,,,,,30,30_2,inclusive_gender_reflexive,2,9,themself,Scott was drinking by themself at the bar earlier.,Was Scott at his apartment?,no,0,Scott,was,drinking,by,themself,at,the,bar,earlier.,ADV_EN_24,001,2023-08-30_11h33.17.148,spr_english_2023_list2,2021.1.1,Win32,59.89817311,,,space,0.939,space,0.3576,space,0.4617,space,0.4505,space,0.5359,space,0.6303,space,0.5874,space,0.6584,space,0.4939,n,0,3.1038,0,5,5,5,1,,
,,,,,,,,,,,,,,,,,,,,,,,,,,,,,14,14_1,neutral_gender_someone,2,9,masculine,Someone photographed me but he quit before I spoke.,Did someone take pictures?,yes,0,Someone,photographed,me,but,he,quit,before,I,spoke.,ADV_EN_24,001,2023-08-30_11h33.17.148,spr_english_2023_list2,2021.1.1,Win32,59.89817311,,,space,0.9115,space,0.7451,space,0.4893,space,0.386,space,0.4348,space,0.44,space,0.5509,space,0.4948,space,1.1777,y,0,1.9187,0,6,6,6,1,,
,,,,,,,,,,,,,,,,,,,,,,,,,,,,,28,28_2,inclusive_gender_reflexive,2,9,themself,Tom was swimming by themself at the beach earlier.,Was Tom at the park?,no,0,Tom,was,swimming,by,themself,at,the,beach,earlier.,ADV_EN_24,001,2023-08-30_11h33.17.148,spr_english_2023_list2,2021.1.1,Win32,59.89817311,,,space,0.6785,space,0.4833,space,0.4383,space,0.4745,space,0.4318,space,1.1362,space,0.4111,space,0.3782,space,0.4434,n,0,1.5368,0,7,7,7,1,,
,,,,,,,,,,,,,,,,,,,,,,,,,,,,,49,NA,filler,1and2,9,NA,"The sun behind distant mountains, painting the nice sky.",Was the sun showing?,,1,The,sun,behind,distant,"mountains,",painting,the,nice,sky.,ADV_EN_24,001,2023-08-30_11h33.17.148,spr_english_2023_list2,2021.1.1,Win32,59.89817311,,,space,0.5024,space,0.3755,space,0.3602,space,0.3606,space,0.6423,space,0.6295,space,0.4679,space,0.4705,space,0.5946,y,0,3.7722,0,8,8,8,1,,
,,,,,,,,,,,,,,,,,,,,,,,,,,,,,38,38_1,inclusive_gender_they,2,9,she,Ruth is angry because she lost the job yesterday.,Is Ruth peaceful?,no,0,Ruth,is,angry,because,she,lost,the,job,yesterday.,ADV_EN_24,001,2023-08-30_11h33.17.148,spr_english_2023_list2,2021.1.1,Win32,59.89817311,,,space,0.7692,space,0.4853,space,0.4954,space,0.5858,space,0.5608,space,0.4881,space,0.6109,space,0.5212,space,0.5079,n,0,1.8943,0,9,9,9,1,,
,,,,,,,,,,,,,,,,,,,,,,,,,,,,,19,19_1,inclusive_gender_reflexive,2,9,himself,James was studying by himself in the library yesterday.,Was James at the library?,yes,1,James,was,studying,by,himself,in,the,library,yesterday.,ADV_EN_24,001,2023-08-30_11h33.17.148,spr_english_2023_list2,2021.1.1,Win32,59.89817311,,,space,1.7702,space,0.5809,space,1.4451,space,0.568,space,0.4979,space,0.5551,space,0.5349,space,0.4523,space,0.4414,y,0,1.8056,0,10,10,10,1,,
,,,,,,,,,,,,,,,,,,,,,,,,,,,,,8,8_1,neutral_gender_someone,2,9,masculine,Someone serenaded me and he stopped before I applauded.,Did the person dance?,no,0,Someone,serenaded,me,and,he,stopped,before,I,applauded.,ADV_EN_24,001,2023-08-30_11h33.17.148,spr_english_2023_list2,2021.1.1,Win32,59.89817311,,,space,1.7142,space,1.0194,space,0.5202,space,0.5047,space,0.452,space,0.5602,space,0.5766,space,0.4384,space,0.569,n,0,4.3639,0,11,11,11,1,,
,,,,,,,,,,,,,,,,,,,,,,,,,,,,,32,32_2,inclusive_gender_reflexive,2,9,themself,Hugh was stretching by themself in the garden earlier.,Was Hugh in the attic?,no,0,Hugh,was,stretching,by,themself,in,the,garden,earlier.,ADV_EN_24,001,2023-08-30_11h33.17.148,spr_english_2023_list2,2021.1.1,Win32,59.89817311,,,space,0.3444,space,0.5936,space,0.4727,space,0.4346,space,0.4095,space,0.4072,space,0.3684,space,0.4048,space,0.4111,n,0,1.7763,0,12,12,12,1,,
,,,,,,,,,,,,,,,,,,,,,,,,,,,,,58,NA,filler,1and2,9,NA,"Scent of flowers wafted, enchanting with its delicate fragrance.",Did the flowers smell bad?,,0,Scent,of,flowers,"wafted,",enchanting,with,its,delicate,fragrance.,ADV_EN_24,001,2023-08-30_11h33.17.148,spr_english_2023_list2,2021.1.1,Win32,59.89817311,,,space,0.4386,space,0.445,space,0.5136,space,0.486,space,0.5583,space,0.4624,space,0.4901,space,0.5254,space,0.4701,n,0,2.3615,0,13,13,13,1,,
,,,,,,,,,,,,,,,,,,,,,,,,,,,,,17,17_1,inclusive_gender_reflexive,2,9,himself,John was sitting by himself on the bench yesterday.,Was John on a bench?,yes,1,John,was,sitting,by,himself,on,the,bench,yesterday.,ADV_EN_24,001,2023-08-30_11h33.17.148,spr_english_2023_list2,2021.1.1,Win32,59.89817311,,,space,0.7114,space,0.4884,space,0.5081,space,0.518,space,0.5033,space,0.4429,space,0.591,space,0.4855,space,0.4959,y,0,1.6764,0,14,14,14,1,,
,,,,,,,,,,,,,,,,,,,,,,,,,,,,,5,5_2,neutral_gender_someone,2,9,neutral,Someone robbed me but they fled before I screamed.,Did a theft occur?,yes,1,Someone,robbed,me,but,they,fled,before,I,screamed.,ADV_EN_24,001,2023-08-30_11h33.17.148,spr_english_2023_list2,2021.1.1,Win32,59.89817311,,,space,6.8576,space,0.5478,space,0.5081,space,0.551,space,0.454,space,0.6356,space,1.1037,space,0.6346,space,0.5965,y,0,4.7399,0,15,15,15,1,,
,,,,,,,,,,,,,,,,,,,,,,,,,,,,,7,7_2,neutral_gender_someone,2,9,neutral,Someone threatened me but they ran before I reacted.,Was there a threat?,yes,1,Someone,threatened,me,but,they,ran,before,I,reacted.,ADV_EN_24,001,2023-08-30_11h33.17.148,spr_english_2023_list2,2021.1.1,Win32,59.89817311,,,space,2.3309,space,1.1366,space,0.4967,space,0.6056,space,0.4013,space,0.4806,space,0.4456,space,0.4516,space,0.6613,y,0,3.4228,0,16,16,16,1,,
,,,,,,,,,,,,,,,,,,,,,,,,,,,,,26,26_2,inclusive_gender_reflexive,2,9,themself,Mark was walking by themself in the park earlier.,Was Mark in the living room?,no,0,Mark,was,walking,by,themself,in,the,park,earlier.,ADV_EN_24,001,2023-08-30_11h33.17.148,spr_english_2023_list2,2021.1.1,Win32,59.89817311,,,space,0.7176,space,0.4942,space,0.481,space,0.4685,space,0.4802,space,0.4502,space,0.4358,space,0.3961,space,0.4176,n,0,1.8471,0,17,17,17,1,,
,,,,,,,,,,,,,,,,,,,,,,,,,,,,,44,44_1,inclusive_gender_they,2,9,she,Alice is hopeful because she had good luck yesterday.,Is Alice sad?,no,0,Alice,is,hopeful,because,she,had,good,luck,yesterday.,ADV_EN_24,001,2023-08-30_11h33.17.148,spr_english_2023_list2,2021.1.1,Win32,59.89817311,,,space,0.5172,space,0.4139,space,0.3706,space,0.4259,space,0.4894,space,7.347,space,0.5416,space,0.4072,space,0.4678,n,0,2.2315,0,18,18,18,1,,
,,,,,,,,,,,,,,,,,,,,,,,,,,,,,52,NA,filler,1and2,9,NA,"I awaited eagerly, anticipating the arrival of the morning.",Was the person waiting for something?,,1,I,awaited,"eagerly,",anticipating,the,arrival,of,the,morning.,ADV_EN_24,001,2023-08-30_11h33.17.148,spr_english_2023_list2,2021.1.1,Win32,59.89817311,,,space,0.5651,space,1.2678,space,1.4946,space,1.0897,space,0.7068,space,0.6617,space,0.5608,space,0.4735,space,1.102,y,0,2.3745,0,19,19,19,1,,
,,,,,,,,,,,,,,,,,,,,,,,,,,,,,27,27_1,inclusive_gender_reflexive,2,9,himself,Paul was drawing by himself in the attic yesterday.,Was Paul drawing?,yes,1,Paul,was,drawing,by,himself,in,the,attic,yesterday.,ADV_EN_24,001,2023-08-30_11h33.17.148,spr_english_2023_list2,2021.1.1,Win32,59.89817311,,,space,0.5544,space,0.3792,space,0.38,space,0.4261,space,0.6878,space,0.4029,space,0.3367,space,0.2908,space,0.3975,y,0,1.2678,0,20,20,20,1,,
,,,,,,,,,,,,,,,,,,,,,,,,,,,,,16,16_1,neutral_gender_someone,2,9,masculine,Someone passed me and he sped before I noticed.,Was everybody going slow?,no,0,Someone,passed,me,and,he,sped,before,I,noticed.,ADV_EN_24,001,2023-08-30_11h33.17.148,spr_english_2023_list2,2021.1.1,Win32,59.89817311,,,space,0.5588,space,0.3749,space,0.51,space,0.6645,space,0.6686,space,0.5115,space,0.8756,space,0.4684,space,0.4563,n,0,8.7653,0,21,21,21,1,,
,,,,,,,,,,,,,,,,,,,,,,,,,,,,,53,NA,filler,1and2,9,NA,"Waves crashed against the shore, creating a soothing rhythm.",Was the rhythm violent?,,0,Waves,crashed,against,the,"shore,",creating,a,soothing,rhythm.,ADV_EN_24,001,2023-08-30_11h33.17.148,spr_english_2023_list2,2021.1.1,Win32,59.89817311,,,space,0.7237,space,0.654,space,0.4519,space,0.3915,space,0.3902,space,0.4517,space,0.3838,space,0.4222,space,0.7739,y,0,2.2109,0,22,22,22,1,,
,,,,,,,,,,,,,,,,,,,,,,,,,,,,,42,42_1,inclusive_gender_they,2,9,she,Nancy is upset because she fell on stage yesterday.,Is Nancy calm?,no,0,Nancy,is,upset,because,she,fell,on,stage,yesterday.,ADV_EN_24,001,2023-08-30_11h33.17.148,spr_english_2023_list2,2021.1.1,Win32,59.89817311,,,space,0.7763,space,0.4177,space,0.3741,space,0.334,space,0.3573,space,0.3813,space,0.3859,space,0.3336,space,0.3857,n,0,1.5791,0,23,23,23,1,,
,,,,,,,,,,,,,,,,,,,,,,,,,,,,,4,4_1,neutral_gender_someone,2,9,masculine,Someone punched me but he ran before I noticed.,Was everybody involved peaceful?,no,0,Someone,punched,me,but,he,ran,before,I,noticed.,ADV_EN_24,001,2023-08-30_11h33.17.148,spr_english_2023_list2,2021.1.1,Win32,59.89817311,,,space,0.5476,space,0.452,space,0.3599,space,0.3587,space,0.3687,space,0.3521,space,0.3758,space,0.3593,space,0.3851,n,0,12.4867,0,24,24,24,1,,
,,,,,,,,,,,,,,,,,,,,,,,,,,,,,40,40_1,inclusive_gender_they,2,9,she,Clara is relieved because she got a promotion yesterday.,Does Clara feel bad?,no,0,Clara,is,relieved,because,she,got,a,promotion,yesterday.,ADV_EN_24,001,2023-08-30_11h33.17.148,spr_english_2023_list2,2021.1.1,Win32,59.89817311,,,space,0.6069,space,0.4447,space,0.4256,space,0.5109,space,0.4687,space,0.4923,space,0.4021,space,0.3518,space,0.3576,n,0,1.35,0,25,25,25,1,,
,,,,,,,,,,,,,,,,,,,,,,,,,,,,,23,23_1,inclusive_gender_reflexive,2,9,himself,Ben was dancing by himself in the kitchen yesterday.,Was Ben in the kitchen?,yes,1,Ben,was,dancing,by,himself,in,the,kitchen,yesterday.,ADV_EN_24,001,2023-08-30_11h33.17.148,spr_english_2023_list2,2021.1.1,Win32,59.89817311,,,space,0.4782,space,0.4353,space,0.4223,space,0.4195,space,0.4338,space,0.4382,space,0.3636,space,0.4287,space,0.3686,y,0,1.8203,0,26,26,26,1,,
,,,,,,,,,,,,,,,,,,,,,,,,,,,,,15,15_2,neutral_gender_someone,2,9,neutral,Someone pranked me but they ran before I reacted.,Was a joke mentioned?,yes,1,Someone,pranked,me,but,they,ran,before,I,reacted.,ADV_EN_24,001,2023-08-30_11h33.17.148,spr_english_2023_list2,2021.1.1,Win32,59.89817311,,,space,0.3859,space,0.3802,space,0.4358,space,0.3369,space,0.4261,space,0.3915,space,0.3905,space,0.3894,space,0.3808,n,0,3.4915,0,27,27,27,1,,
,,,,,,,,,,,,,,,,,,,,,,,,,,,,,3,3_2,neutral_gender_someone,2,9,neutral,Someone hit me but they ran before I reacted,Was there physical violence?,yes,1,Someone,hit,me,but,they,ran,before,I,reacted.,ADV_EN_24,001,2023-08-30_11h33.17.148,spr_english_2023_list2,2021.1.1,Win32,59.89817311,,,space,1.8365,space,0.4213,space,0.4035,space,0.3714,space,0.3943,space,0.418,space,0.3915,space,0.3865,space,0.4345,y,0,4.8512,0,28,28,28,1,,
,,,,,,,,,,,,,,,,,,,,,,,,,,,,,50,NA,filler,1and2,9,NA,"He smiled warmly, extending a hand in friendly greeting.",Did someone fall?,,0,He,smiled,"warmly,",extending,a,hand,in,friendly,greeting.,ADV_EN_24,001,2023-08-30_11h33.17.148,spr_english_2023_list2,2021.1.1,Win32,59.89817311,,,space,0.8047,space,0.6035,space,0.6344,space,0.606,space,0.3867,space,0.3542,space,0.3362,space,0.317,space,0.415,n,0,1.5485,0,29,29,29,1,,
,,,,,,,,,,,,,,,,,,,,,,,,,,,,,41,41_2,inclusive_gender_they,2,9,they,Laura is happy because they passed the exam earlier.,Is Laura in a good mood?,yes,1,Laura,is,happy,because,they,passed,the,exam,earlier.,ADV_EN_24,001,2023-08-30_11h33.17.148,spr_english_2023_list2,2021.1.1,Win32,59.89817311,,,space,1.0288,space,0.6104,space,0.4558,space,0.4025,space,0.7448,space,0.5874,space,0.44,space,0.4146,space,0.4285,y,0,1.6519,0,30,30,30,1,,
,,,,,,,,,,,,,,,,,,,,,,,,,,,,,54,NA,filler,1and2,9,NA,"She danced a lot, her movements resembling pure poetry.",Was it an unpleasant dance?,,0,She,danced,a,"lot,",her,movements,resembling,pure,poetry.,ADV_EN_24,001,2023-08-30_11h33.17.148,spr_english_2023_list2,2021.1.1,Win32,59.89817311,,,space,0.4619,space,0.3612,space,0.3373,space,0.3144,space,0.3575,space,0.3518,space,0.4063,space,0.3558,space,0.3723,n,0,3.8558,0,31,31,31,1,,
,,,,,,,,,,,,,,,,,,,,,,,,,,,,,24,24_2,inclusive_gender_reflexive,2,9,themself,Jake was strolling by themself at the park earlier.,Was Jake swimming?,no,0,Jake,was,strolling,by,themself,at,the,park,earlier.,ADV_EN_24,001,2023-08-30_11h33.17.148,spr_english_2023_list2,2021.1.1,Win32,59.89817311,,,space,0.4677,space,0.3442,space,0.3767,space,0.6707,space,0.4367,space,0.4005,space,0.3352,space,0.3192,space,0.3696,n,0,4.154,0,32,32,32,1,,
,,,,,,,,,,,,,,,,,,,,,,,,,,,,,46,46_1,inclusive_gender_they,2,9,she,Kate is tipsy because she had two drinks earlier.,Is Kate sober?,no,0,Kate,is,tipsy,because,she,had,two,drinks,earlier.,ADV_EN_24,001,2023-08-30_11h33.17.148,spr_english_2023_list2,2021.1.1,Win32,59.89817311,,,space,0.5803,space,0.4511,space,0.3916,space,0.4005,space,0.3971,space,0.4217,space,0.4033,space,0.4075,space,0.4029,n,0,2.5732,0,33,33,33,1,,
,,,,,,,,,,,,,,,,,,,,,,,,,,,,,25,25_1,inclusive_gender_reflexive,2,9,himself,Blake was fishing by himself at the riverbank yesterday.,Was Blake fishing?,yes,1,Blake,was,fishing,by,himself,at,the,riverbank,yesterday.,ADV_EN_24,001,2023-08-30_11h33.17.148,spr_english_2023_list2,2021.1.1,Win32,59.89817311,,,space,1.6122,space,0.3751,space,0.3869,space,0.4003,space,0.3577,space,0.3519,space,0.3167,space,0.4197,space,0.3876,y,0,1.531,0,34,34,34,1,,
,,,,,,,,,,,,,,,,,,,,,,,,,,,,,43,43_2,inclusive_gender_they,2,9,they,Rose is content because they won an award earlier.,Is Rose happy?,yes,1,Rose,is,content,because,they,won,an,award,earlier.,ADV_EN_24,001,2023-08-30_11h33.17.148,spr_english_2023_list2,2021.1.1,Win32,59.89817311,,,space,0.4121,space,0.3292,space,0.3345,space,0.3527,space,0.3881,space,0.3561,space,0.3638,space,0.3697,space,0.3522,y,0,1.1733,0,35,35,35,1,,
,,,,,,,,,,,,,,,,,,,,,,,,,,,,,51,NA,filler,1and2,9,NA,"The old oak tree stood tall, casting shade below.",Was a big plant mentioned? ,,1,The,old,oak,tree,stood,"tall,",casting,shade,below.,ADV_EN_24,001,2023-08-30_11h33.17.148,spr_english_2023_list2,2021.1.1,Win32,59.89817311,,,space,0.5394,space,0.3486,space,0.3725,space,0.3815,space,0.4124,space,0.3472,space,0.4194,space,0.392,space,0.3286,n,0,9.7227,0,36,36,36,1,,
,,,,,,,,,,,,,,,,,,,,,,,,,,,,,22,22_2,inclusive_gender_reflexive,2,9,themself,Max was painting by themself in the studio earlier.,Was Max watching tv?,no,0,Max,was,painting,by,themself,in,the,studio,earlier.,ADV_EN_24,001,2023-08-30_11h33.17.148,spr_english_2023_list2,2021.1.1,Win32,59.89817311,,,space,1.1299,space,0.4032,space,0.369,space,0.3767,space,0.4095,space,0.3837,space,0.3731,space,0.4309,space,0.42,n,0,1.1211,0,37,37,37,1,,
,,,,,,,,,,,,,,,,,,,,,,,,,,,,,33,33_2,inclusive_gender_they,2,9,they,Sara is happy because they found new friends yesterday.,Is Sara in a good mood?,yes,1,Sara,is,happy,because,they,found,new,friends,yesterday.,ADV_EN_24,001,2023-08-30_11h33.17.148,spr_english_2023_list2,2021.1.1,Win32,59.89817311,,,space,0.537,space,0.3622,space,0.3796,space,0.4103,space,0.3684,space,0.4004,space,0.342,space,0.4869,space,0.4016,y,0,2.1119,0,38,38,38,1,,
,,,,,,,,,,,,,,,,,,,,,,,,,,,,,9,9_2,neutral_gender_someone,2,9,neutral,Someone helped me but they left before I finished.,Did the person offer some help?,yes,1,Someone,helped,me,but,they,left,before,I,finished.,ADV_EN_24,001,2023-08-30_11h33.17.148,spr_english_2023_list2,2021.1.1,Win32,59.89817311,,,space,0.6571,space,0.5355,space,0.4859,space,0.3834,space,0.4027,space,0.4136,space,0.3948,space,0.3957,space,0.3531,n,0,9.8097,0,39,39,39,1,,
,,,,,,,,,,,,,,,,,,,,,,,,,,,,,10,10_1,neutral_gender_someone,2,9,masculine,Someone shushed me but he stopped before I noticed.,Was the person happy to hear a voice?,no,0,Someone,shushed,me,but,he,stopped,before,I,noticed.,ADV_EN_24,001,2023-08-30_11h33.17.148,spr_english_2023_list2,2021.1.1,Win32,59.89817311,,,space,0.4067,space,0.3886,space,0.6448,space,0.4082,space,0.3285,space,0.3683,space,0.2956,space,0.3654,space,0.3355,n,0,3.7427,0,40,40,40,1,,
,,,,,,,,,,,,,,,,,,,,,,,,,,,,,11,11_2,neutral_gender_someone,2,9,neutral,Someone pushed me but they tripped after I fell.,Was there any sort of physical violence?,yes,1,Someone,pushed,me,but,they,tripped,after,I,fell.,ADV_EN_24,001,2023-08-30_11h33.17.148,spr_english_2023_list2,2021.1.1,Win32,59.89817311,,,space,0.5355,space,0.4606,space,0.3511,space,0.3625,space,0.346,space,0.3298,space,0.3646,space,0.3412,space,0.3179,y,0,4.3989,0,41,41,41,1,,
,,,,,,,,,,,,,,,,,,,,,,,,,,,,,39,39_2,inclusive_gender_they,2,9,they,Judy is confused because they lost the map ealier.,Did Judy lose something?,yes,1,Judy,is,confused,because,they,lost,the,map,ealier.,ADV_EN_24,001,2023-08-30_11h33.17.148,spr_english_2023_list2,2021.1.1,Win32,59.89817311,,,space,0.6101,space,0.4393,space,0.3522,space,0.4137,space,0.4439,space,0.5674,space,0.3677,space,0.3034,space,0.3367,y,0,1.3139,0,42,42,42,1,,
,,,,,,,,,,,,,,,,,,,,,,,,,,,,,57,NA,filler,1and2,9,NA,"The child's laughter echoed, bringing joy to the playground.",Was the child happy?,,1,The,child's,laughter,"echoed,",bringing,joy,to,the,playground.,ADV_EN_24,001,2023-08-30_11h33.17.148,spr_english_2023_list2,2021.1.1,Win32,59.89817311,,,space,0.3652,space,0.3243,space,0.4547,space,0.8888,space,0.3978,space,0.3942,space,0.4028,space,0.3284,space,0.4022,y,0,2.4244,0,43,43,43,1,,
,,,,,,,,,,,,,,,,,,,,,,,,,,,,,21,21_1,inclusive_gender_reflexive,2,9,himself,Jack was cooking by himself in the kitchen yesterday.,Was Jack in the kitchen?,yes,1,Jack,was,cooking,by,himself,in,the,kitchen,yesterday.,ADV_EN_24,001,2023-08-30_11h33.17.148,spr_english_2023_list2,2021.1.1,Win32,59.89817311,,,space,0.3803,space,0.3715,space,0.2916,space,0.4021,space,0.3022,space,0.3837,space,0.3529,space,0.3024,space,0.3281,y,0,1.5204,0,44,44,44,1,,
,,,,,,,,,,,,,,,,,,,,,,,,,,,,,35,35_2,inclusive_gender_they,2,9,they,Susan is joyful because they won the lottery yesterday.,Is Susan in a good mood?,yes,1,Susan,is,joyful,because,they,won,the,lottery,yesterday.,ADV_EN_24,001,2023-08-30_11h33.17.148,spr_english_2023_list2,2021.1.1,Win32,59.89817311,,,space,0.3944,space,0.3595,space,0.3451,space,0.3945,space,0.3211,space,0.3394,space,0.3173,space,0.3854,space,0.3964,y,0,0.9234,0,45,45,45,1,,
,,,,,,,,,,,,,,,,,,,,,,,,,,,,,36,36_1,inclusive_gender_they,2,9,she,Helen is anxious because she dread the presentation earlier.,Did Helen's presentation go well?,no,0,Helen,is,anxious,because,she,dread,the,presentation,earlier.,ADV_EN_24,001,2023-08-30_11h33.17.148,spr_english_2023_list2,2021.1.1,Win32,59.89817311,,,space,0.4111,space,0.3959,space,0.3207,space,0.4131,space,0.3453,space,0.3639,space,0.4027,space,0.4977,space,0.4693,n,0,17.8344,0,46,46,46,1,,
,,,,,,,,,,,,,,,,,,,,,,,,,,,,,56,NA,filler,1and2,9,NA,"They went on an exciting trip, embracing their destiny.",Did they stay home?,,0,They,went,on,an,exciting,"trip,",embracing,their,destiny.,ADV_EN_24,001,2023-08-30_11h33.17.148,spr_english_2023_list2,2021.1.1,Win32,59.89817311,,,space,1.9406,space,0.5892,space,0.4416,space,0.4018,space,0.7815,space,0.6211,space,0.4915,space,0.4462,space,0.4738,n,0,1.5647,0,47,47,47,1,,
,,,,,,,,,,,,,,,,,,,,,,,,,,,,,2,2_1,neutral_gender_someone,2,9,masculine,Someone warned me and he helped before I fell.,Did everybody maintain stability?,no,0,Someone,warned,me,and,he,helped,before,I,fell.,ADV_EN_24,001,2023-08-30_11h33.17.148,spr_english_2023_list2,2021.1.1,Win32,59.89817311,,,space,10.2047,space,0.7376,space,0.444,space,0.3344,space,0.3199,space,0.4508,space,0.3346,space,0.3834,space,0.3183,n,0,2.6717,0,48,48,48,1,,
,,,,,,,,,,,,,,,,,,,,,,,,,,,,,45,45_2,inclusive_gender_they,2,9,they,Patricia is upset because they missed the bus earlier.,Is Patricia in a bad mood?,yes,1,Patricia,is,upset,because,they,missed,the,bus,earlier.,ADV_EN_24,001,2023-08-30_11h33.17.148,spr_english_2023_list2,2021.1.1,Win32,59.89817311,,,space,0.6962,space,0.3874,space,0.9389,space,0.3998,space,0.3306,space,0.372,space,0.322,space,0.3019,space,0.3273,y,0,1.9275,0,49,49,49,1,,
,,,,,,,,,,,,,,,,,,,,,,,,,,,,,29,29_1,inclusive_gender_reflexive,2,9,himself,Kyle was cycling by himself on the trail yesterday.,Was Kyle on the trail?,yes,1,Kyle,was,cycling,by,himself,on,the,trail,yesterday.,ADV_EN_24,001,2023-08-30_11h33.17.148,spr_english_2023_list2,2021.1.1,Win32,59.89817311,,,space,0.848,space,3.7571,space,0.3933,space,0.3758,space,0.4412,space,0.3078,space,0.2965,space,0.3235,space,0.352,y,0,3.0939,0,50,50,50,1,,
,,,,,,,,,,,,,,,,,,,,,,,,,,,,,59,NA,filler,1and2,9,NA,"Colorful balloons floated away, disappearing into the infinite sky.",Did the balloons have many colors?,,1,Colorful,balloons,floated,"away,",disappearing,into,the,infinite,sky.,ADV_EN_24,001,2023-08-30_11h33.17.148,spr_english_2023_list2,2021.1.1,Win32,59.89817311,,,space,1.0531,space,0.3356,space,0.4192,space,0.328,space,0.3622,space,0.4088,space,0.3276,space,0.2844,space,0.3249,y,0,2.7587,0,51,51,51,1,,
,,,,,,,,,,,,,,,,,,,,,,,,,,,,,20,20_2,inclusive_gender_reflexive,2,9,themself,Mike was jogging by themself in the park earlier.,Was Mike sleeping?,no,0,Mike,was,jogging,by,themself,in,the,park,earlier.,ADV_EN_24,001,2023-08-30_11h33.17.148,spr_english_2023_list2,2021.1.1,Win32,59.89817311,,,space,0.4614,space,0.4081,space,0.504,space,0.354,space,0.3696,space,0.3706,space,0.3445,space,0.3056,space,0.3341,n,0,1.4362,0,52,52,52,1,,
,,,,,,,,,,,,,,,,,,,,,,,,,,,,,48,48_1,inclusive_gender_they,2,9,she,Martha is tired because she read two novels earlier.,Does Martha have a lot of energy?,no,0,Martha,is,tired,because,she,read,two,novels,earlier.,ADV_EN_24,001,2023-08-30_11h33.17.148,spr_english_2023_list2,2021.1.1,Win32,59.89817311,,,space,0.5212,space,0.3305,space,0.4278,space,0.3623,space,0.3828,space,0.3455,space,0.3301,space,0.3572,space,0.4528,n,0,2.7276,0,53,53,53,1,,
,,,,,,,,,,,,,,,,,,,,,,,,,,,,,6,6_1,neutral_gender_someone,2,9,masculine,Someone kissed me and he smiled before I blushed.,Did someone steal a pencil?,no,0,Someone,kissed,me,and,he,smiled,before,I,blushed.,ADV_EN_24,001,2023-08-30_11h33.17.148,spr_english_2023_list2,2021.1.1,Win32,59.89817311,,,space,0.5043,space,0.7546,space,0.4021,space,0.4553,space,0.421,space,0.3302,space,0.3526,space,0.3482,space,0.3558,n,0,2.3487,0,54,54,54,1,,
,,,,,,,,,,,,,,,,,,,,,,,,,,,,,18,18_2,inclusive_gender_reflexive,2,9,themself,Luke was reading by themself on the couch earlier.,Was Luke painting?,no,0,Luke,was,reading,by,themself,on,the,couch,earlier.,ADV_EN_24,001,2023-08-30_11h33.17.148,spr_english_2023_list2,2021.1.1,Win32,59.89817311,,,space,0.5182,space,0.3688,space,0.3506,space,0.3509,space,0.3807,space,0.3677,space,0.3193,space,0.3425,space,0.3505,n,0,1.2242,0,55,55,55,1,,
,,,,,,,,,,,,,,,,,,,,,,,,,,,,,60,NA,filler,1and2,9,NA,"Soft raindrops tapped gently, creating a rhythmic melody outside.",Was it a sunny day?,,0,Soft,raindrops,tapped,"gently,",creating,a,rhythmic,melody,outside.,ADV_EN_24,001,2023-08-30_11h33.17.148,spr_english_2023_list2,2021.1.1,Win32,59.89817311,,,space,0.7393,space,0.8538,space,0.5207,space,0.4023,space,0.3774,space,0.3442,space,0.3368,space,0.3857,space,0.3284,n,0,1.2026,0,56,56,56,1,,
,,,,,,,,,,,,,,,,,,,,,,,,,,,,,47,47_2,inclusive_gender_they,2,9,they,Jane is happy because they won the game earlier.,Did Jane win something?,yes,1,Jane,is,happy,because,they,won,the,game,earlier.,ADV_EN_24,001,2023-08-30_11h33.17.148,spr_english_2023_list2,2021.1.1,Win32,59.89817311,,,space,0.5211,space,0.4007,space,0.4467,space,0.4374,space,0.3694,space,0.3682,space,0.4185,space,0.3595,space,0.3421,y,0,1.585,0,57,57,57,1,,
,,,,,,,,,,,,,,,,,,,,,,,,,,,,,12,12_1,neutral_gender_someone,2,9,masculine,Someone scared me and he ran after I screamed.,Did the person write a note?,no,0,Someone,scared,me,and,he,ran,after,I,screamed.,ADV_EN_24,001,2023-08-30_11h33.17.148,spr_english_2023_list2,2021.1.1,Win32,59.89817311,,,space,0.432,space,0.492,space,0.3731,space,0.3357,space,0.343,space,0.3836,space,0.3522,space,0.3421,space,0.3862,n,0,1.7909,0,58,58,58,1,,
,,,,,,,,,,,,,,,,,,,,,,,,,,,,,13,13_2,neutral_gender_someone,2,9,neutral,Someone filmed me but they stopped after I objected.,Did the person use a technological device?,yes,1,Someone,filmed,me,but,they,stopped,after,I,objected.,ADV_EN_24,001,2023-08-30_11h33.17.148,spr_english_2023_list2,2021.1.1,Win32,59.89817311,,,space,0.835,space,0.4365,space,0.3186,space,0.3434,space,0.3521,space,0.3687,space,0.864,space,0.4605,space,0.5915,n,0,5.016,0,59,59,59,1,,
,,,,,,,,,,,,,,,,,,,,,,,,,,,,,,,,,,,,,,,,,,,,,,,,ADV_EN_24,001,2023-08-30_11h33.17.148,spr_english_2023_list2,2021.1.1,Win32,59.89817311,,,,,,,,,,,,,,,,,,,,,,,,,,,,,y,3.9578
