key_resp.keys,key_resp.rt,key_resp_2.keys,key_resp_2.rt,key_resp_3.keys,key_resp_3.rt,key_resp_4.keys,key_resp_4.rt,key_resp_5.keys,key_resp_5.rt,key_resp_6.keys,key_resp_6.rt,key_resp_7.keys,key_resp_7.rt,key_resp_8.keys,key_resp_8.rt,key_resp_9.keys,key_resp_9.rt,key_resp_10.keys,key_resp_10.rt,key_resp_11.keys,key_resp_11.rt,key_resp_15.keys,key_resp_15.rt,trials_2.thisRepN,trials_2.thisTrialN,trials_2.thisN,trials_2.thisIndex,trials_2.ran,base_sentence_number,version,experiment,list,numb_words,gender,sentence,question,answer,CorrAns,w1,w2,w3,w4,w5,w6,w7,w8,w9,participant,session,date,expName,psychopyVersion,OS,frameRate,key_resp_16.keys,key_resp_16.rt,word1.keys,word1.rt,word2.keys,word2.rt,word3.keys,word3.rt,word4.keys,word4.rt,word5.keys,word5.rt,word6.keys,word6.rt,word7.keys,word7.rt,word8.keys,word8.rt,word9.keys,word9.rt,compquestion.keys,compquestion.corr,compquestion.rt,trials.thisRepN,trials.thisTrialN,trials.thisN,trials.thisIndex,trials.ran,endoftask.keys,endoftask.rt
space,17.0338,y,2.4265,space,2.099,space,0.7063,space,1.4933,space,1.5751,space,0.9526,space,0.7839,space,0.9508,space,0.9839,space,0.8417,n,4.1519,0,0,0,0,1,NA,NA,practica,NA,NA,NA,Rita is uncomfortable because it is very hot outside.,Is it cold?,no,0,Rita,is,uncomfortable,because,it,is,very,hot,outside.,ADV_EN_20,001,2023-08-30_11h22.30.506,spr_english_2023_list1,2021.1.1,Win32,59.41064639,,,,,,,,,,,,,,,,,,,,,,,,,,,,,,
,,,,space,1.4217,space,0.9092,space,1.6055,space,0.6958,space,0.6958,space,0.5685,space,0.6174,space,0.5084,space,0.7109,n,6.2871,0,1,1,1,1,NA,NA,practica,NA,NA,NA,Peter was running by himself in the park yesterday.,Was Peter painting the wall?,no,0,Peter,was,running,by,himself,in,the,park,yesterday.,ADV_EN_20,001,2023-08-30_11h22.30.506,spr_english_2023_list1,2021.1.1,Win32,59.41064639,,,,,,,,,,,,,,,,,,,,,,,,,,,,,,
,,,,space,0.8511,space,0.6356,space,1.1749,space,0.7001,space,1.8892,space,2.3163,space,1.1425,space,0.6937,space,0.5541,y,6.4258,0,2,2,2,1,NA,NA,practica,NA,NA,NA,Hannah is watching tv because she is really bored.,Is Hannah in front of a screen?,yes,1,Hannah,is,watching,tv,because,she,is,really,bored.,ADV_EN_20,001,2023-08-30_11h22.30.506,spr_english_2023_list1,2021.1.1,Win32,59.41064639,,,,,,,,,,,,,,,,,,,,,,,,,,,,,,
,,,,,,,,,,,,,,,,,,,,,,,,,,,,,1,1_1,neutral_gender_someone,1,9,masculine,Someone called me but he stopped before I answered,Did the person try to communicate?,yes,1,Someone,called,me,but,he,stopped,before,I,answered.,ADV_EN_20,001,2023-08-30_11h22.30.506,spr_english_2023_list1,2021.1.1,Win32,59.41064639,space,6.7051,space,1.4811,space,0.6243,space,0.4874,space,0.4852,space,1.6681,space,1.3951,space,0.7778,space,2.7214,space,0.5798,y,0,10.651,0,0,0,0,1,,
,,,,,,,,,,,,,,,,,,,,,,,,,,,,,21,21_2,inclusive_gender_reflexive,1,9,themself,Jack was cooking by themself in the kitchen yesterday.,Was Jack in the kitchen?,yes,1,Jack,was,cooking,by,themself,in,the,kitchen,yesterday.,ADV_EN_20,001,2023-08-30_11h22.30.506,spr_english_2023_list1,2021.1.1,Win32,59.41064639,,,space,0.7524,space,1.0173,space,2.277,space,0.7019,space,2.5976,space,0.4518,space,0.4247,space,0.6486,space,0.6686,y,0,5.4261,0,1,1,1,1,,
,,,,,,,,,,,,,,,,,,,,,,,,,,,,,55,NA,filler,1and2,9,NA,The aroma of freshly brewed coffee filled the room.,Was the smell nice?,,1,The,aroma,of,freshly,brewed,coffee,filled,the,room.,ADV_EN_20,001,2023-08-30_11h22.30.506,spr_english_2023_list1,2021.1.1,Win32,59.41064639,,,space,2.7359,space,0.7119,space,0.5462,space,2.1815,space,2.1546,space,3.3565,space,0.7179,space,0.5026,space,0.5054,y,0,9.3336,0,2,2,2,1,,
,,,,,,,,,,,,,,,,,,,,,,,,,,,,,22,22_1,inclusive_gender_reflexive,1,9,himself,Max was painting by himself in the studio earlier.,Was Max watching tv?,no,0,Max,was,painting,by,himself,in,the,studio,earlier.,ADV_EN_20,001,2023-08-30_11h22.30.506,spr_english_2023_list1,2021.1.1,Win32,59.41064639,,,space,0.5338,space,0.6304,space,0.9249,space,0.786,space,0.6216,space,0.4038,space,0.3511,space,1.0766,space,0.6021,n,0,2.1348,0,3,3,3,1,,
,,,,,,,,,,,,,,,,,,,,,,,,,,,,,33,33_1,inclusive_gender_they,1,9,she,Sara is happy because she found new friends yesterday.,Is Sara in a good mood?,yes,1,Sara,is,happy,because,she,found,new,friends,yesterday.,ADV_EN_20,001,2023-08-30_11h22.30.506,spr_english_2023_list1,2021.1.1,Win32,59.41064639,,,space,0.6836,space,0.5092,space,2.5511,space,0.744,space,0.7675,space,1.8258,space,1.3191,space,1.1851,space,0.5351,y,0,5.1066,0,4,4,4,1,,
,,,,,,,,,,,,,,,,,,,,,,,,,,,,,31,31_2,inclusive_gender_reflexive,1,9,themself,Troy was singing by themself in the shower yesterday.,Was Troy singing?,yes,1,Troy,was,singing,by,themself,in,the,shower,yesterday.,ADV_EN_20,001,2023-08-30_11h22.30.506,spr_english_2023_list1,2021.1.1,Win32,59.41064639,,,space,1.4301,space,0.9695,space,2.5959,space,2.8525,space,0.4864,space,0.4856,space,0.3518,space,0.4015,space,0.4622,y,0,2.6567,0,5,5,5,1,,
,,,,,,,,,,,,,,,,,,,,,,,,,,,,,60,NA,filler,1and2,9,NA,"Soft raindrops tapped gently, creating a rhythmic melody outside.",Was it a sunny day?,,0,Soft,raindrops,tapped,"gently,",creating,a,rhythmic,melody,outside.,ADV_EN_20,001,2023-08-30_11h22.30.506,spr_english_2023_list1,2021.1.1,Win32,59.41064639,,,space,1.2959,space,3.1694,space,0.6907,space,0.7571,space,0.9804,space,0.4151,space,0.9094,space,0.503,space,0.534,n,0,6.5867,0,6,6,6,1,,
,,,,,,,,,,,,,,,,,,,,,,,,,,,,,34,34_2,inclusive_gender_they,1,9,they,Mary is sad because they lost the dog earlier.,Did mary lose something?,no,0,Mary,is,sad,because,they,lost,the,dog,earlier.,ADV_EN_20,001,2023-08-30_11h22.30.506,spr_english_2023_list1,2021.1.1,Win32,59.41064639,,,space,1.5808,space,0.6509,space,0.5175,space,0.4746,space,1.0212,space,0.7233,space,0.6027,space,1.9502,space,0.4936,y,0,2.1129,0,7,7,7,1,,
,,,,,,,,,,,,,,,,,,,,,,,,,,,,,10,10_2,neutral_gender_someone,1,9,neutral,Someone shushed me but they stopped before I noticed.,Was the person happy to hear a voice?,no,0,Someone,shushed,me,but,they,stopped,before,I,noticed.,ADV_EN_20,001,2023-08-30_11h22.30.506,spr_english_2023_list1,2021.1.1,Win32,59.41064639,,,space,0.6193,space,1.8361,space,0.7133,space,1.0415,space,1.1517,space,0.6557,space,0.5813,space,0.5078,space,0.8023,y,0,16.501,0,8,8,8,1,,
,,,,,,,,,,,,,,,,,,,,,,,,,,,,,56,NA,filler,1and2,9,NA,"They went on an exciting trip, embracing their destiny.",Did they stay home?,,0,They,went,on,an,exciting,"trip,",embracing,their,destiny.,ADV_EN_20,001,2023-08-30_11h22.30.506,spr_english_2023_list1,2021.1.1,Win32,59.41064639,,,space,1.1762,space,2.3111,space,0.7485,space,0.9574,space,1.1555,space,0.789,space,0.9359,space,0.4691,space,0.5778,n,0,1.6982,0,9,9,9,1,,
,,,,,,,,,,,,,,,,,,,,,,,,,,,,,23,23_2,inclusive_gender_reflexive,1,9,themself,Ben was dancing by themself in the kitchen yesterday.,Was Ben in the kitchen?,yes,1,Ben,was,dancing,by,themself,in,the,kitchen,yesterday.,ADV_EN_20,001,2023-08-30_11h22.30.506,spr_english_2023_list1,2021.1.1,Win32,59.41064639,,,space,3.5416,space,0.5427,space,0.9293,space,0.6493,space,2.3504,space,0.5025,space,0.5056,space,0.5264,space,0.454,n,0,3.157,0,10,10,10,1,,
,,,,,,,,,,,,,,,,,,,,,,,,,,,,,9,9_1,neutral_gender_someone,1,9,masculine,Someone helped me but he left before I finished.,Did the person offer some help?,yes,1,Someone,helped,me,but,he,left,before,I,finished.,ADV_EN_20,001,2023-08-30_11h22.30.506,spr_english_2023_list1,2021.1.1,Win32,59.41064639,,,space,0.6295,space,0.6349,space,0.5046,space,0.4681,space,0.4071,space,0.5018,space,0.4222,space,0.4155,space,0.6352,n,0,2.155,0,11,11,11,1,,
,,,,,,,,,,,,,,,,,,,,,,,,,,,,,12,12_2,neutral_gender_someone,1,9,neutral,Someone scared me and they ran after I screamed.,Did the person write a note?,no,0,Someone,scared,me,and,they,ran,after,I,screamed.,ADV_EN_20,001,2023-08-30_11h22.30.506,spr_english_2023_list1,2021.1.1,Win32,59.41064639,,,space,0.9397,space,1.0675,space,3.1997,space,0.9515,space,1.3056,space,0.7791,space,1.307,space,0.3442,space,0.4297,n,0,3.8352,0,12,12,12,1,,
,,,,,,,,,,,,,,,,,,,,,,,,,,,,,50,NA,filler,1and2,9,NA,"He smiled warmly, extending a hand in friendly greeting.",Did someone fall?,,0,He,smiled,"warmly,",extending,a,hand,in,friendly,greeting.,ADV_EN_20,001,2023-08-30_11h22.30.506,spr_english_2023_list1,2021.1.1,Win32,59.41064639,,,space,0.5949,space,1.2519,space,1.2003,space,0.7418,space,0.5777,space,0.6813,space,0.6189,space,0.835,space,1.6186,n,0,1.3167,0,13,13,13,1,,
,,,,,,,,,,,,,,,,,,,,,,,,,,,,,36,36_2,inclusive_gender_they,1,9,they,Helen is anxious because they dread the presentation earlier.,Did Helen's presentation go well?,no,0,Helen,is,anxious,because,they,dread,the,presentation,earlier.,ADV_EN_20,001,2023-08-30_11h22.30.506,spr_english_2023_list1,2021.1.1,Win32,59.41064639,,,space,0.6515,space,0.5869,space,2.0129,space,0.8271,space,0.7451,space,5.114,space,0.8127,space,0.6931,space,1.4158,n,0,16.5587,0,14,14,14,1,,
,,,,,,,,,,,,,,,,,,,,,,,,,,,,,16,16_2,neutral_gender_someone,1,9,neutral,Someone passed me and they sped before I noticed.,Was everybody going slow?,no,0,Someone,passed,me,and,they,sped,before,I,noticed.,ADV_EN_20,001,2023-08-30_11h22.30.506,spr_english_2023_list1,2021.1.1,Win32,59.41064639,,,space,3.0693,space,1.0411,space,2.8084,space,0.585,space,0.6195,space,1.7083,space,0.4859,space,0.4683,space,0.552,n,0,2.7731,0,15,15,15,1,,
,,,,,,,,,,,,,,,,,,,,,,,,,,,,,20,20_1,inclusive_gender_reflexive,1,9,himself,Mike was jogging by himself in the park earlier.,Was Mike sleeping?,no,0,Mike,was,jogging,by,himself,in,the,park,earlier.,ADV_EN_20,001,2023-08-30_11h22.30.506,spr_english_2023_list1,2021.1.1,Win32,59.41064639,,,space,0.854,space,0.5639,space,1.0023,space,0.9699,space,0.7551,space,0.4999,space,0.3905,space,0.467,space,0.5142,n,0,2.1179,0,16,16,16,1,,
,,,,,,,,,,,,,,,,,,,,,,,,,,,,,54,NA,filler,1and2,9,NA,"She danced a lot, her movements resembling pure poetry.",Was it an unpleasant dance?,,0,She,danced,a,"lot,",her,movements,resembling,pure,poetry.,ADV_EN_20,001,2023-08-30_11h22.30.506,spr_english_2023_list1,2021.1.1,Win32,59.41064639,,,space,0.583,space,0.5523,space,0.7271,space,0.8006,space,0.3837,space,0.8027,space,0.7255,space,0.4403,space,0.7018,n,0,3.367,0,17,17,17,1,,
,,,,,,,,,,,,,,,,,,,,,,,,,,,,,4,4_2,neutral_gender_someone,1,9,neutral,Someone punched me but they ran before I noticed.,Was everybody involved peaceful?,no,0,Someone,punched,me,but,they,ran,before,I,noticed.,ADV_EN_20,001,2023-08-30_11h22.30.506,spr_english_2023_list1,2021.1.1,Win32,59.41064639,,,space,1.1294,space,1.0986,space,0.6516,space,0.5063,space,0.5847,space,0.5873,space,0.4296,space,0.4004,space,0.4161,n,0,2.8083,0,18,18,18,1,,
,,,,,,,,,,,,,,,,,,,,,,,,,,,,,7,7_1,neutral_gender_someone,1,9,masculine,Someone threatened me but he ran before I reacted.,Was there a threat?,yes,1,Someone,threatened,me,but,he,ran,before,I,reacted.,ADV_EN_20,001,2023-08-30_11h22.30.506,spr_english_2023_list1,2021.1.1,Win32,59.41064639,,,space,0.6838,space,1.1677,space,0.4854,space,0.4697,space,0.7749,space,0.563,space,0.5935,space,0.5211,space,0.8606,y,0,2.0241,0,19,19,19,1,,
,,,,,,,,,,,,,,,,,,,,,,,,,,,,,19,19_2,inclusive_gender_reflexive,1,9,themself,James was studying by themself in the library yesterday.,Was James at the library?,yes,1,James,was,studying,by,themself,in,the,library,yesterday.,ADV_EN_20,001,2023-08-30_11h22.30.506,spr_english_2023_list1,2021.1.1,Win32,59.41064639,,,space,2.2459,space,2.8455,space,1.3824,space,0.6722,space,1.7693,space,0.536,space,0.3531,space,0.5353,space,0.5693,y,0,2.8027,0,20,20,20,1,,
,,,,,,,,,,,,,,,,,,,,,,,,,,,,,11,11_1,neutral_gender_someone,1,9,masculine,Someone pushed me but he tripped after I fell.,Was there any sort of physical violence?,yes,1,Someone,pushed,me,but,he,tripped,after,I,fell.,ADV_EN_20,001,2023-08-30_11h22.30.506,spr_english_2023_list1,2021.1.1,Win32,59.41064639,,,space,0.9589,space,0.6811,space,0.4157,space,0.3962,space,0.4244,space,0.681,space,0.6756,space,0.4793,space,0.5553,y,0,6.3556,0,21,21,21,1,,
,,,,,,,,,,,,,,,,,,,,,,,,,,,,,37,37_1,inclusive_gender_they,1,9,she,Emily is grateful because she got nice gifts yesterday.,Did Emily get presents?,yes,1,Emily,is,grateful,because,she,got,nice,gifts,yesterday.,ADV_EN_20,001,2023-08-30_11h22.30.506,spr_english_2023_list1,2021.1.1,Win32,59.41064639,,,space,0.7564,space,0.5675,space,0.8692,space,0.7458,space,0.5484,space,0.4702,space,0.5368,space,0.5381,space,0.9023,y,0,1.6707,0,22,22,22,1,,
,,,,,,,,,,,,,,,,,,,,,,,,,,,,,32,32_1,inclusive_gender_reflexive,1,9,himself,Hugh was stretching by himself in the garden earlier.,Was Hugh in the attic?,no,0,Hugh,was,stretching,by,himself,in,the,garden,earlier.,ADV_EN_20,001,2023-08-30_11h22.30.506,spr_english_2023_list1,2021.1.1,Win32,59.41064639,,,space,3.0198,space,0.7198,space,0.8102,space,0.4262,space,0.5834,space,0.4155,space,0.4166,space,0.4216,space,0.4833,n,0,2.0044,0,23,23,23,1,,
,,,,,,,,,,,,,,,,,,,,,,,,,,,,,44,44_2,inclusive_gender_they,1,9,they,Alice is hopeful because they had good luck yesterday.,Is Alice sad?,no,0,Alice,is,hopeful,because,they,had,good,luck,yesterday.,ADV_EN_20,001,2023-08-30_11h22.30.506,spr_english_2023_list1,2021.1.1,Win32,59.41064639,,,space,0.7001,space,0.4008,space,0.9684,space,0.5116,space,0.5708,space,0.6497,space,0.5272,space,0.5611,space,0.4518,n,0,1.3183,0,24,24,24,1,,
,,,,,,,,,,,,,,,,,,,,,,,,,,,,,3,3_1,neutral_gender_someone,1,9,masculine,Someone hit me but he ran before I reacted,Was there physical violence?,yes,1,Someone,hit,me,but,he,ran,before,I,reacted.,ADV_EN_20,001,2023-08-30_11h22.30.506,spr_english_2023_list1,2021.1.1,Win32,59.41064639,,,space,0.5605,space,0.7031,space,0.9993,space,0.5628,space,0.58,space,0.6118,space,0.7698,space,0.4201,space,0.5185,y,0,2.076,0,25,25,25,1,,
,,,,,,,,,,,,,,,,,,,,,,,,,,,,,39,39_1,inclusive_gender_they,1,9,she,Judy is confused because she lost the map ealier.,Did Judy lose something?,yes,1,Judy,is,confused,because,she,lost,the,map,ealier.,ADV_EN_20,001,2023-08-30_11h22.30.506,spr_english_2023_list1,2021.1.1,Win32,59.41064639,,,space,1.0382,space,0.6016,space,1.3053,space,0.516,space,0.8657,space,0.812,space,0.6337,space,0.3829,space,0.4397,y,0,1.8495,0,26,26,26,1,,
,,,,,,,,,,,,,,,,,,,,,,,,,,,,,18,18_1,inclusive_gender_reflexive,1,9,himself,Luke was reading by himself on the couch earlier.,Was Luke painting?,no,0,Luke,was,reading,by,himself,on,the,couch,earlier.,ADV_EN_20,001,2023-08-30_11h22.30.506,spr_english_2023_list1,2021.1.1,Win32,59.41064639,,,space,1.2008,space,0.7756,space,0.9177,space,0.6419,space,1.4965,space,0.3858,space,0.6025,space,0.7051,space,0.534,n,0,2.2443,0,27,27,27,1,,
,,,,,,,,,,,,,,,,,,,,,,,,,,,,,14,14_2,neutral_gender_someone,1,9,neutral,Someone photographed me but they quit before I spoke.,Did someone take pictures?,yes,0,Someone,photographed,me,but,they,quit,before,I,spoke.,ADV_EN_20,001,2023-08-30_11h22.30.506,spr_english_2023_list1,2021.1.1,Win32,59.41064639,,,space,0.7668,space,1.1687,space,0.827,space,0.489,space,0.8499,space,0.9068,space,0.7191,space,0.8704,space,1.1085,n,0,2.2616,0,28,28,28,1,,
,,,,,,,,,,,,,,,,,,,,,,,,,,,,,30,30_1,inclusive_gender_reflexive,1,9,himself,Scott was drinking by himself at the bar earlier.,Was Scott at his apartment?,no,0,Scott,was,drinking,by,himself,at,the,bar,earlier.,ADV_EN_20,001,2023-08-30_11h22.30.506,spr_english_2023_list1,2021.1.1,Win32,59.41064639,,,space,0.7544,space,1.365,space,0.7081,space,0.6018,space,0.511,space,0.4798,space,0.3508,space,0.3746,space,0.4685,n,0,2.0527,0,29,29,29,1,,
,,,,,,,,,,,,,,,,,,,,,,,,,,,,,53,NA,filler,1and2,9,NA,"Waves crashed against the shore, creating a soothing rhythm.",Was the rhythm violent?,,0,Waves,crashed,against,the,"shore,",creating,a,soothing,rhythm.,ADV_EN_20,001,2023-08-30_11h22.30.506,spr_english_2023_list1,2021.1.1,Win32,59.41064639,,,space,0.7182,space,0.5532,space,0.5289,space,0.4748,space,1.2483,space,0.4856,space,0.4237,space,0.8537,space,0.5152,y,0,2.7194,0,30,30,30,1,,
,,,,,,,,,,,,,,,,,,,,,,,,,,,,,28,28_1,inclusive_gender_reflexive,1,9,himself,Tom was swimming by himself at the beach earlier.,Was Tom at the park?,no,0,Tom,was,swimming,by,himself,at,the,beach,earlier.,ADV_EN_20,001,2023-08-30_11h22.30.506,spr_english_2023_list1,2021.1.1,Win32,59.41064639,,,space,1.1418,space,0.5712,space,1.5343,space,0.4272,space,0.5031,space,0.3642,space,0.34,space,0.557,space,0.4934,n,0,1.2889,0,31,31,31,1,,
,,,,,,,,,,,,,,,,,,,,,,,,,,,,,46,46_2,inclusive_gender_they,1,9,they,Kate is tipsy because they had two drinks earlier.,Is Kate sober?,no,0,Kate,is,tipsy,because,they,had,two,drinks,earlier.,ADV_EN_20,001,2023-08-30_11h22.30.506,spr_english_2023_list1,2021.1.1,Win32,59.41064639,,,space,0.8614,space,0.4353,space,0.4008,space,0.6019,space,0.7684,space,0.4754,space,0.465,space,0.5077,space,0.5036,n,0,7.2431,0,32,32,32,1,,
,,,,,,,,,,,,,,,,,,,,,,,,,,,,,35,35_1,inclusive_gender_they,1,9,she,Susan is joyful because she won the lottery yesterday.,Is Susan in a good mood?,yes,1,Susan,is,joyful,because,she,won,the,lottery,yesterday.,ADV_EN_20,001,2023-08-30_11h22.30.506,spr_english_2023_list1,2021.1.1,Win32,59.41064639,,,space,0.9115,space,0.5389,space,1.1241,space,0.6234,space,0.5353,space,0.8056,space,0.8374,space,0.4505,space,0.4337,y,0,1.3884,0,33,33,33,1,,
,,,,,,,,,,,,,,,,,,,,,,,,,,,,,24,24_1,inclusive_gender_reflexive,1,9,himself,Jake was strolling by himself at the park earlier.,Was Jake swimming?,no,0,Jake,was,strolling,by,himself,at,the,park,earlier.,ADV_EN_20,001,2023-08-30_11h22.30.506,spr_english_2023_list1,2021.1.1,Win32,59.41064639,,,space,2.7966,space,0.5547,space,1.0681,space,0.5118,space,0.8849,space,0.4649,space,0.4265,space,0.7693,space,0.4362,n,0,1.0562,0,34,34,34,1,,
,,,,,,,,,,,,,,,,,,,,,,,,,,,,,52,NA,filler,1and2,9,NA,"I awaited eagerly, anticipating the arrival of the morning.",Was the person waiting for something?,,1,I,awaited,"eagerly,",anticipating,the,arrival,of,the,morning.,ADV_EN_20,001,2023-08-30_11h22.30.506,spr_english_2023_list1,2021.1.1,Win32,59.41064639,,,space,0.4022,space,0.4742,space,1.1353,space,0.7518,space,0.6642,space,0.5018,space,0.3583,space,0.344,space,1.7227,y,0,1.8511,0,35,35,35,1,,
,,,,,,,,,,,,,,,,,,,,,,,,,,,,,27,27_2,inclusive_gender_reflexive,1,9,themself,Paul was drawing by themself in the attic yesterday.,Was Paul drawing?,yes,1,Paul,was,drawing,by,themself,in,the,attic,yesterday.,ADV_EN_20,001,2023-08-30_11h22.30.506,spr_english_2023_list1,2021.1.1,Win32,59.41064639,,,space,0.5449,space,0.6094,space,1.1515,space,0.4908,space,0.5842,space,0.4514,space,0.3775,space,0.6852,space,0.8626,y,0,1.5814,0,36,36,36,1,,
,,,,,,,,,,,,,,,,,,,,,,,,,,,,,57,NA,filler,1and2,9,NA,"The child's laughter echoed, bringing joy to the playground.",Was the child happy?,,1,The,child's,laughter,"echoed,",bringing,joy,to,the,playground.,ADV_EN_20,001,2023-08-30_11h22.30.506,spr_english_2023_list1,2021.1.1,Win32,59.41064639,,,space,0.3811,space,0.6619,space,2.2522,space,0.8843,space,0.5048,space,0.4215,space,0.3523,space,0.3849,space,0.5492,y,0,2.3516,0,37,37,37,1,,
,,,,,,,,,,,,,,,,,,,,,,,,,,,,,45,45_1,inclusive_gender_they,1,9,she,Patricia is upset because she missed the bus earlier.,Is Patricia in a bad mood?,yes,1,Patricia,is,upset,because,she,missed,the,bus,earlier.,ADV_EN_20,001,2023-08-30_11h22.30.506,spr_english_2023_list1,2021.1.1,Win32,59.41064639,,,space,0.8056,space,0.3956,space,0.387,space,0.5213,space,0.4688,space,0.5286,space,0.4115,space,0.6251,space,0.4716,y,0,5.6296,0,38,38,38,1,,
,,,,,,,,,,,,,,,,,,,,,,,,,,,,,43,43_1,inclusive_gender_they,1,9,she,Rose is content because she won an award earlier.,Is Rose happy?,yes,1,Rose,is,content,because,she,won,an,award,earlier.,ADV_EN_20,001,2023-08-30_11h22.30.506,spr_english_2023_list1,2021.1.1,Win32,59.41064639,,,space,1.3056,space,0.534,space,1.4467,space,0.6764,space,0.9184,space,0.3856,space,0.3291,space,0.4188,space,0.4418,y,0,1.1857,0,39,39,39,1,,
,,,,,,,,,,,,,,,,,,,,,,,,,,,,,29,29_2,inclusive_gender_reflexive,1,9,themself,Kyle was cycling by themself on the trail yesterday.,Was Kyle on the trail?,yes,1,Kyle,was,cycling,by,themself,on,the,trail,yesterday.,ADV_EN_20,001,2023-08-30_11h22.30.506,spr_english_2023_list1,2021.1.1,Win32,59.41064639,,,space,0.8013,space,0.5837,space,0.7507,space,0.414,space,0.4136,space,0.3622,space,0.3797,space,0.434,space,0.4568,n,0,10.5084,0,40,40,40,1,,
,,,,,,,,,,,,,,,,,,,,,,,,,,,,,47,47_1,inclusive_gender_they,1,9,she,Jane is happy because she won the game earlier.,Did Jane win something?,yes,1,Jane,is,happy,because,she,won,the,game,earlier.,ADV_EN_20,001,2023-08-30_11h22.30.506,spr_english_2023_list1,2021.1.1,Win32,59.41064639,,,space,0.4652,space,0.5346,space,0.4787,space,0.4338,space,0.6514,space,0.5336,space,0.4519,space,0.4135,space,0.4195,y,0,1.6021,0,41,41,41,1,,
,,,,,,,,,,,,,,,,,,,,,,,,,,,,,2,2_2,neutral_gender_someone,1,9,neutral,Someone warned me and they helped before I fell.,Did everybody maintain stability?,no,0,Someone,warned,me,and,they,helped,before,I,fell.,ADV_EN_20,001,2023-08-30_11h22.30.506,spr_english_2023_list1,2021.1.1,Win32,59.41064639,,,space,0.5134,space,0.4351,space,0.3132,space,0.3137,space,0.3676,space,0.3731,space,0.3596,space,0.4549,space,0.4369,y,0,6.4976,0,42,42,42,1,,
,,,,,,,,,,,,,,,,,,,,,,,,,,,,,41,41_1,inclusive_gender_they,1,9,she,Laura is happy because she passed the exam earlier.,Is Laura in a good mood?,yes,1,Laura,is,happy,because,she,passed,the,exam,earlier.,ADV_EN_20,001,2023-08-30_11h22.30.506,spr_english_2023_list1,2021.1.1,Win32,59.41064639,,,space,0.7028,space,0.3996,space,0.3517,space,0.31,space,0.3294,space,0.395,space,0.3469,space,0.3522,space,0.4123,y,0,0.9801,0,43,43,43,1,,
,,,,,,,,,,,,,,,,,,,,,,,,,,,,,58,NA,filler,1and2,9,NA,"Scent of flowers wafted, enchanting with its delicate fragrance.",Did the flowers smell bad?,,0,Scent,of,flowers,"wafted,",enchanting,with,its,delicate,fragrance.,ADV_EN_20,001,2023-08-30_11h22.30.506,spr_english_2023_list1,2021.1.1,Win32,59.41064639,,,space,0.4519,space,0.5845,space,0.3533,space,0.3537,space,0.5179,space,0.3967,space,0.3888,space,0.4522,space,0.5292,n,0,1.6436,0,44,44,44,1,,
,,,,,,,,,,,,,,,,,,,,,,,,,,,,,42,42_2,inclusive_gender_they,1,9,they,Nancy is upset because they fell on stage yesterday.,Is Nancy calm?,no,0,Nancy,is,upset,because,they,fell,on,stage,yesterday.,ADV_EN_20,001,2023-08-30_11h22.30.506,spr_english_2023_list1,2021.1.1,Win32,59.41064639,,,space,0.6163,space,0.417,space,0.3809,space,0.4918,space,0.6814,space,0.5519,space,0.4632,space,0.4586,space,0.8374,n,0,1.8518,0,45,45,45,1,,
,,,,,,,,,,,,,,,,,,,,,,,,,,,,,48,48_2,inclusive_gender_they,1,9,they,Martha is tired because they read two novels earlier.,Does Martha have a lot of energy?,no,0,Martha,is,tired,because,they,read,two,novels,earlier.,ADV_EN_20,001,2023-08-30_11h22.30.506,spr_english_2023_list1,2021.1.1,Win32,59.41064639,,,space,1.1592,space,0.4428,space,0.4556,space,0.5177,space,0.8994,space,0.634,space,0.3674,space,0.8336,space,0.54,y,0,4.0936,0,46,46,46,1,,
,,,,,,,,,,,,,,,,,,,,,,,,,,,,,15,15_1,neutral_gender_someone,1,9,masculine,Someone pranked me but he ran before I reacted.,Was a joke mentioned?,yes,1,Someone,pranked,me,but,he,ran,before,I,reacted.,ADV_EN_20,001,2023-08-30_11h22.30.506,spr_english_2023_list1,2021.1.1,Win32,59.41064639,,,space,0.4163,space,0.7185,space,0.4502,space,0.3744,space,0.4628,space,0.493,space,0.5995,space,0.4063,space,0.8773,n,0,3.7542,0,47,47,47,1,,
,,,,,,,,,,,,,,,,,,,,,,,,,,,,,6,6_2,neutral_gender_someone,1,9,neutral,Someone kissed me and they smiled before I blushed.,Did someone steal a pencil?,no,0,Someone,kissed,me,and,they,smiled,before,I,blushed.,ADV_EN_20,001,2023-08-30_11h22.30.506,spr_english_2023_list1,2021.1.1,Win32,59.41064639,,,space,0.5152,space,0.5186,space,0.3327,space,0.377,space,0.3999,space,0.4394,space,0.4208,space,0.3524,space,0.3947,n,0,2.1333,0,48,48,48,1,,
,,,,,,,,,,,,,,,,,,,,,,,,,,,,,49,NA,filler,1and2,9,NA,"The sun behind distant mountains, painting the nice sky.",Was the sun showing?,,1,The,sun,behind,distant,"mountains,",painting,the,nice,sky.,ADV_EN_20,001,2023-08-30_11h22.30.506,spr_english_2023_list1,2021.1.1,Win32,59.41064639,,,space,0.4195,space,0.5532,space,0.5017,space,0.7337,space,0.6637,space,0.6176,space,0.424,space,0.3579,space,0.472,n,0,5.5314,0,49,49,49,1,,
,,,,,,,,,,,,,,,,,,,,,,,,,,,,,38,38_2,inclusive_gender_they,1,9,they,Ruth is angry because they lost the job yesterday.,Is Ruth peaceful?,no,0,Ruth,is,angry,because,they,lost,the,job,yesterday.,ADV_EN_20,001,2023-08-30_11h22.30.506,spr_english_2023_list1,2021.1.1,Win32,59.41064639,,,space,0.7179,space,0.4185,space,0.4934,space,0.4894,space,0.4687,space,0.5843,space,0.6012,space,0.5213,space,1.9631,n,0,1.7392,0,50,50,50,1,,
,,,,,,,,,,,,,,,,,,,,,,,,,,,,,5,5_1,neutral_gender_someone,1,9,masculine,Someone robbed me but he fled before I screamed.,Did a theft occur?,yes,1,Someone,robbed,me,but,he,fled,before,I,screamed.,ADV_EN_20,001,2023-08-30_11h22.30.506,spr_english_2023_list1,2021.1.1,Win32,59.41064639,,,space,0.5671,space,0.5177,space,0.3667,space,0.3335,space,0.3302,space,0.4327,space,0.5783,space,0.3131,space,0.828,y,0,3.673,0,51,51,51,1,,
,,,,,,,,,,,,,,,,,,,,,,,,,,,,,59,NA,filler,1and2,9,NA,"Colorful balloons floated away, disappearing into the infinite sky.",Did the balloons have many colors?,,1,Colorful,balloons,floated,"away,",disappearing,into,the,infinite,sky.,ADV_EN_20,001,2023-08-30_11h22.30.506,spr_english_2023_list1,2021.1.1,Win32,59.41064639,,,space,0.7814,space,2.7193,space,0.5539,space,0.5688,space,0.8888,space,0.5188,space,0.4946,space,0.769,space,0.497,y,0,3.492,0,52,52,52,1,,
,,,,,,,,,,,,,,,,,,,,,,,,,,,,,13,13_1,neutral_gender_someone,1,9,masculine,Someone filmed me but he stopped after I objected.,Did the person use a technological device?,yes,1,Someone,filmed,me,but,he,stopped,after,I,objected.,ADV_EN_20,001,2023-08-30_11h22.30.506,spr_english_2023_list1,2021.1.1,Win32,59.41064639,,,space,0.4869,space,0.5634,space,0.4852,space,0.3862,space,0.4466,space,0.5889,space,0.5003,space,0.3919,space,0.5267,y,0,3.8739,0,53,53,53,1,,
,,,,,,,,,,,,,,,,,,,,,,,,,,,,,40,40_2,inclusive_gender_they,1,9,they,Clara is relieved because they got a promotion yesterday.,Does Clara feel bad?,no,0,Clara,is,relieved,because,they,got,a,promotion,yesterday.,ADV_EN_20,001,2023-08-30_11h22.30.506,spr_english_2023_list1,2021.1.1,Win32,59.41064639,,,space,0.4355,space,0.4181,space,0.6159,space,0.4485,space,0.4755,space,0.5352,space,0.4009,space,0.4661,space,0.4068,n,0,1.3713,0,54,54,54,1,,
,,,,,,,,,,,,,,,,,,,,,,,,,,,,,25,25_2,inclusive_gender_reflexive,1,9,themself,Blake was fishing by themself at the riverbank yesterday.,Was Blake fishing?,yes,1,Blake,was,fishing,by,themself,at,the,riverbank,yesterday.,ADV_EN_20,001,2023-08-30_11h22.30.506,spr_english_2023_list1,2021.1.1,Win32,59.41064639,,,space,0.6861,space,0.5028,space,0.5336,space,0.3711,space,0.3893,space,0.3239,space,0.3734,space,1.8019,space,0.5716,y,0,2.2202,0,55,55,55,1,,
,,,,,,,,,,,,,,,,,,,,,,,,,,,,,51,NA,filler,1and2,9,NA,"The old oak tree stood tall, casting shade below.",Was a big plant mentioned? ,,1,The,old,oak,tree,stood,"tall,",casting,shade,below.,ADV_EN_20,001,2023-08-30_11h22.30.506,spr_english_2023_list1,2021.1.1,Win32,59.41064639,,,space,0.4342,space,0.3216,space,0.6106,space,0.5695,space,0.5535,space,0.4528,space,0.8628,space,0.9017,space,0.6162,y,0,5.5012,0,56,56,56,1,,
,,,,,,,,,,,,,,,,,,,,,,,,,,,,,26,26_1,inclusive_gender_reflexive,1,9,himself,Mark was walking by himself in the park earlier.,Was Mark in the living room?,no,0,Mark,was,walking,by,himself,in,the,park,earlier.,ADV_EN_20,001,2023-08-30_11h22.30.506,spr_english_2023_list1,2021.1.1,Win32,59.41064639,,,space,0.5174,space,1.4022,space,1.5843,space,0.5697,space,1.0812,space,0.6448,space,0.347,space,0.3798,space,0.38,n,0,1.9521,0,57,57,57,1,,
,,,,,,,,,,,,,,,,,,,,,,,,,,,,,17,17_2,inclusive_gender_reflexive,1,9,themself,John was sitting by themself on the bench yesterday.,Was John on a bench?,yes,1,John,was,sitting,by,themself,on,the,bench,yesterday.,ADV_EN_20,001,2023-08-30_11h22.30.506,spr_english_2023_list1,2021.1.1,Win32,59.41064639,,,space,0.4051,space,0.6176,space,0.5604,space,0.5047,space,1.6931,space,0.435,space,0.3521,space,0.358,space,0.5188,y,0,1.5123,0,58,58,58,1,,
,,,,,,,,,,,,,,,,,,,,,,,,,,,,,8,8_2,neutral_gender_someone,1,9,neutral,Someone serenaded me and they stopped before I applauded.,Did the person dance?,no,0,Someone,serenaded,me,and,they,stopped,before,I,applauded.,ADV_EN_20,001,2023-08-30_11h22.30.506,spr_english_2023_list1,2021.1.1,Win32,59.41064639,,,space,0.7694,space,1.6033,space,0.4884,space,0.3358,space,0.3836,space,0.4841,space,0.4349,space,0.3843,space,0.7172,n,0,1.5544,0,59,59,59,1,,
,,,,,,,,,,,,,,,,,,,,,,,,,,,,,,,,,,,,,,,,,,,,,,,,ADV_EN_20,001,2023-08-30_11h22.30.506,spr_english_2023_list1,2021.1.1,Win32,59.41064639,,,,,,,,,,,,,,,,,,,,,,,,,,,,,y,2.6101
