key_resp.keys,key_resp.rt,key_resp_2.keys,key_resp_2.rt,key_resp_3.keys,key_resp_3.rt,key_resp_4.keys,key_resp_4.rt,key_resp_5.keys,key_resp_5.rt,key_resp_6.keys,key_resp_6.rt,key_resp_7.keys,key_resp_7.rt,key_resp_8.keys,key_resp_8.rt,key_resp_9.keys,key_resp_9.rt,key_resp_10.keys,key_resp_10.rt,key_resp_11.keys,key_resp_11.rt,key_resp_15.keys,key_resp_15.rt,trials_2.thisRepN,trials_2.thisTrialN,trials_2.thisN,trials_2.thisIndex,trials_2.ran,base_sentence_number,version,experiment,list,numb_words,gender,sentence,question,answer,CorrAns,w1,w2,w3,w4,w5,w6,w7,w8,w9,participant,session,date,expName,psychopyVersion,OS,frameRate,key_resp_16.keys,key_resp_16.rt,word1.keys,word1.rt,word2.keys,word2.rt,word3.keys,word3.rt,word4.keys,word4.rt,word5.keys,word5.rt,word6.keys,word6.rt,word7.keys,word7.rt,word8.keys,word8.rt,word9.keys,word9.rt,compquestion.keys,compquestion.corr,compquestion.rt,trials.thisRepN,trials.thisTrialN,trials.thisN,trials.thisIndex,trials.ran,endoftask.keys,endoftask.rt
space,34.3576,y,2.0038,space,1.254,space,0.672,space,0.9026,space,0.7276,space,0.6068,space,0.5759,space,0.5443,space,0.6914,space,0.5889,n,4.482,0,0,0,0,1,NA,NA,practica,NA,NA,NA,Rita is uncomfortable because it is very hot outside.,Is it cold?,no,0,Rita,is,uncomfortable,because,it,is,very,hot,outside.,INC_J_ADV_06,001,2023-07-20_08h44.26.490,spr_english_2023_list1,2021.1.1,Win32,59.87665409,,,,,,,,,,,,,,,,,,,,,,,,,,,,,,
,,,,space,0.9031,space,0.4544,space,0.6203,space,0.5272,space,1.0558,space,0.6093,space,0.4781,space,0.6549,space,1.0722,n,4.5394,0,1,1,1,1,NA,NA,practica,NA,NA,NA,Peter was running by himself in the park yesterday.,Was Peter painting the wall?,no,0,Peter,was,running,by,himself,in,the,park,yesterday.,INC_J_ADV_06,001,2023-07-20_08h44.26.490,spr_english_2023_list1,2021.1.1,Win32,59.87665409,,,,,,,,,,,,,,,,,,,,,,,,,,,,,,
,,,,space,1.0539,space,0.5783,space,0.5882,space,0.6762,space,0.7214,space,1.256,space,0.4724,space,0.579,space,0.6229,y,4.4029,0,2,2,2,1,NA,NA,practica,NA,NA,NA,Hannah is watching tv because she is really bored.,Is Hannah in front of a screen?,yes,1,Hannah,is,watching,tv,because,she,is,really,bored.,INC_J_ADV_06,001,2023-07-20_08h44.26.490,spr_english_2023_list1,2021.1.1,Win32,59.87665409,,,,,,,,,,,,,,,,,,,,,,,,,,,,,,
,,,,,,,,,,,,,,,,,,,,,,,,,,,,,1,1_1,neutral_gender_someone,1,9,masculine,Someone called me but he stopped before I answered,Did the person try to communicate?,yes,1,Someone,called,me,but,he,stopped,before,I,answered.,INC_J_ADV_06,001,2023-07-20_08h44.26.490,spr_english_2023_list1,2021.1.1,Win32,59.87665409,space,17.8498,space,0.6569,space,0.5025,space,0.4734,space,0.4911,space,1.7917,space,0.5841,space,0.9046,space,0.6109,space,1.388,y,0,3.6894,0,0,0,0,1,,
,,,,,,,,,,,,,,,,,,,,,,,,,,,,,21,21_2,inclusive_gender_reflexive,1,9,themself,Jack was cooking by themself in the kitchen yesterday.,Was Jack in the kitchen?,yes,1,Jack,was,cooking,by,themself,in,the,kitchen,yesterday.,INC_J_ADV_06,001,2023-07-20_08h44.26.490,spr_english_2023_list1,2021.1.1,Win32,59.87665409,,,space,2.6903,space,0.641,space,0.6385,space,0.4593,space,3.2569,space,0.7226,space,0.4574,space,0.5904,space,0.6219,y,0,4.7146,0,1,1,1,1,,
,,,,,,,,,,,,,,,,,,,,,,,,,,,,,55,NA,filler,1and2,9,NA,The aroma of freshly brewed coffee filled the room.,Was the smell nice?,,1,The,aroma,of,freshly,brewed,coffee,filled,the,room.,INC_J_ADV_06,001,2023-07-20_08h44.26.490,spr_english_2023_list1,2021.1.1,Win32,59.87665409,,,space,2.994,space,0.6538,space,0.5387,space,0.8821,space,1.9851,space,0.6555,space,0.872,space,0.5279,space,0.5721,y,0,2.4563,0,2,2,2,1,,
,,,,,,,,,,,,,,,,,,,,,,,,,,,,,22,22_1,inclusive_gender_reflexive,1,9,himself,Max was painting by himself in the studio earlier.,Was Max watching tv?,no,0,Max,was,painting,by,himself,in,the,studio,earlier.,INC_J_ADV_06,001,2023-07-20_08h44.26.490,spr_english_2023_list1,2021.1.1,Win32,59.87665409,,,space,1.2422,space,0.6921,space,1.8902,space,0.5673,space,0.8027,space,0.6054,space,0.5724,space,0.7543,space,0.7757,n,0,1.7064,0,3,3,3,1,,
,,,,,,,,,,,,,,,,,,,,,,,,,,,,,33,33_1,inclusive_gender_they,1,9,she,Sara is happy because she found new friends yesterday.,Is Sara in a good mood?,yes,1,Sara,is,happy,because,she,found,new,friends,yesterday.,INC_J_ADV_06,001,2023-07-20_08h44.26.490,spr_english_2023_list1,2021.1.1,Win32,59.87665409,,,space,0.6384,space,0.5101,space,0.5068,space,0.368,space,0.5213,space,0.6716,space,0.4298,space,0.5085,space,0.4533,y,0,3.4263,0,4,4,4,1,,
,,,,,,,,,,,,,,,,,,,,,,,,,,,,,31,31_2,inclusive_gender_reflexive,1,9,themself,Troy was singing by themself in the shower yesterday.,Was Troy singing?,yes,1,Troy,was,singing,by,themself,in,the,shower,yesterday.,INC_J_ADV_06,001,2023-07-20_08h44.26.490,spr_english_2023_list1,2021.1.1,Win32,59.87665409,,,space,0.7373,space,0.5089,space,0.5713,space,0.4091,space,0.5546,space,1.7074,space,0.5076,space,0.5105,space,0.8452,y,0,2.0887,0,5,5,5,1,,
,,,,,,,,,,,,,,,,,,,,,,,,,,,,,60,NA,filler,1and2,9,NA,"Soft raindrops tapped gently, creating a rhythmic melody outside.",Was it a sunny day?,,0,Soft,raindrops,tapped,"gently,",creating,a,rhythmic,melody,outside.,INC_J_ADV_06,001,2023-07-20_08h44.26.490,spr_english_2023_list1,2021.1.1,Win32,59.87665409,,,space,0.9443,space,1.5397,space,0.773,space,0.6446,space,0.8857,space,0.6181,space,0.6217,space,0.6769,space,0.655,n,0,2.1535,0,6,6,6,1,,
,,,,,,,,,,,,,,,,,,,,,,,,,,,,,34,34_2,inclusive_gender_they,1,9,they,Mary is sad because they lost the dog earlier.,Did mary lose something?,no,0,Mary,is,sad,because,they,lost,the,dog,earlier.,INC_J_ADV_06,001,2023-07-20_08h44.26.490,spr_english_2023_list1,2021.1.1,Win32,59.87665409,,,space,1.1402,space,0.5064,space,0.4381,space,0.5936,space,0.577,space,0.5389,space,0.9098,space,0.5924,space,0.51,y,0,4.7433,0,7,7,7,1,,
,,,,,,,,,,,,,,,,,,,,,,,,,,,,,10,10_2,neutral_gender_someone,1,9,neutral,Someone shushed me but they stopped before I noticed.,Was the person happy to hear a voice?,no,0,Someone,shushed,me,but,they,stopped,before,I,noticed.,INC_J_ADV_06,001,2023-07-20_08h44.26.490,spr_english_2023_list1,2021.1.1,Win32,59.87665409,,,space,1.171,space,0.3775,space,0.8554,space,0.4734,space,0.5281,space,0.576,space,0.5554,space,0.507,space,0.5716,n,0,7.8412,0,8,8,8,1,,
,,,,,,,,,,,,,,,,,,,,,,,,,,,,,56,NA,filler,1and2,9,NA,"They went on an exciting trip, embracing their destiny.",Did they stay home?,,0,They,went,on,an,exciting,"trip,",embracing,their,destiny.,INC_J_ADV_06,001,2023-07-20_08h44.26.490,spr_english_2023_list1,2021.1.1,Win32,59.87665409,,,space,1.4041,space,0.5758,space,1.0395,space,0.6383,space,0.7781,space,0.5877,space,2.3621,space,2.8921,space,8.3401,n,0,4.018,0,9,9,9,1,,
,,,,,,,,,,,,,,,,,,,,,,,,,,,,,23,23_2,inclusive_gender_reflexive,1,9,themself,Ben was dancing by themself in the kitchen yesterday.,Was Ben in the kitchen?,yes,1,Ben,was,dancing,by,themself,in,the,kitchen,yesterday.,INC_J_ADV_06,001,2023-07-20_08h44.26.490,spr_english_2023_list1,2021.1.1,Win32,59.87665409,,,space,17.6272,space,0.5397,space,2.4231,space,0.7564,space,0.9058,space,0.5143,space,0.4553,space,0.4227,space,0.4413,y,0,2.0888,0,10,10,10,1,,
,,,,,,,,,,,,,,,,,,,,,,,,,,,,,9,9_1,neutral_gender_someone,1,9,masculine,Someone helped me but he left before I finished.,Did the person offer some help?,yes,1,Someone,helped,me,but,he,left,before,I,finished.,INC_J_ADV_06,001,2023-07-20_08h44.26.490,spr_english_2023_list1,2021.1.1,Win32,59.87665409,,,space,1.528,space,0.4443,space,0.4896,space,0.456,space,2.3938,space,0.9728,space,1.0224,space,0.393,space,0.4258,y,0,2.3732,0,11,11,11,1,,
,,,,,,,,,,,,,,,,,,,,,,,,,,,,,12,12_2,neutral_gender_someone,1,9,neutral,Someone scared me and they ran after I screamed.,Did the person write a note?,no,0,Someone,scared,me,and,they,ran,after,I,screamed.,INC_J_ADV_06,001,2023-07-20_08h44.26.490,spr_english_2023_list1,2021.1.1,Win32,59.87665409,,,space,4.1576,space,0.6993,space,1.0843,space,0.467,space,0.5133,space,0.6126,space,0.4039,space,0.4223,space,0.8073,n,0,2.3213,0,12,12,12,1,,
,,,,,,,,,,,,,,,,,,,,,,,,,,,,,50,NA,filler,1and2,9,NA,"He smiled warmly, extending a hand in friendly greeting.",Did someone fall?,,0,He,smiled,"warmly,",extending,a,hand,in,friendly,greeting.,INC_J_ADV_06,001,2023-07-20_08h44.26.490,spr_english_2023_list1,2021.1.1,Win32,59.87665409,,,space,1.4129,space,0.7392,space,1.6938,space,1.3604,space,2.8583,space,0.5569,space,0.8082,space,0.455,space,0.425,y,0,5.6536,0,13,13,13,1,,
,,,,,,,,,,,,,,,,,,,,,,,,,,,,,36,36_2,inclusive_gender_they,1,9,they,Helen is anxious because they dread the presentation earlier.,Did Helen's presentation go well?,no,0,Helen,is,anxious,because,they,dread,the,presentation,earlier.,INC_J_ADV_06,001,2023-07-20_08h44.26.490,spr_english_2023_list1,2021.1.1,Win32,59.87665409,,,space,0.6233,space,0.5062,space,0.6162,space,0.6026,space,0.7106,space,0.7776,space,0.6074,space,0.7414,space,0.6087,n,0,3.4072,0,14,14,14,1,,
,,,,,,,,,,,,,,,,,,,,,,,,,,,,,16,16_2,neutral_gender_someone,1,9,neutral,Someone passed me and they sped before I noticed.,Was everybody going slow?,no,0,Someone,passed,me,and,they,sped,before,I,noticed.,INC_J_ADV_06,001,2023-07-20_08h44.26.490,spr_english_2023_list1,2021.1.1,Win32,59.87665409,,,space,1.357,space,0.4324,space,0.464,space,0.4956,space,0.4282,space,1.0733,space,0.5058,space,0.478,space,0.4915,n,0,7.5567,0,15,15,15,1,,
,,,,,,,,,,,,,,,,,,,,,,,,,,,,,20,20_1,inclusive_gender_reflexive,1,9,himself,Mike was jogging by himself in the park earlier.,Was Mike sleeping?,no,0,Mike,was,jogging,by,himself,in,the,park,earlier.,INC_J_ADV_06,001,2023-07-20_08h44.26.490,spr_english_2023_list1,2021.1.1,Win32,59.87665409,,,space,1.2226,space,0.5573,space,0.7815,space,0.478,space,0.5147,space,0.5852,space,0.5189,space,0.3988,space,0.4573,n,0,1.9261,0,16,16,16,1,,
,,,,,,,,,,,,,,,,,,,,,,,,,,,,,54,NA,filler,1and2,9,NA,"She danced a lot, her movements resembling pure poetry.",Was it an unpleasant dance?,,0,She,danced,a,"lot,",her,movements,resembling,pure,poetry.,INC_J_ADV_06,001,2023-07-20_08h44.26.490,spr_english_2023_list1,2021.1.1,Win32,59.87665409,,,space,1.1566,space,0.6822,space,0.5196,space,0.5462,space,0.4815,space,0.5609,space,1.1036,space,0.5596,space,0.7667,n,0,3.0495,0,17,17,17,1,,
,,,,,,,,,,,,,,,,,,,,,,,,,,,,,4,4_2,neutral_gender_someone,1,9,neutral,Someone punched me but they ran before I noticed.,Was everybody involved peaceful?,no,0,Someone,punched,me,but,they,ran,before,I,noticed.,INC_J_ADV_06,001,2023-07-20_08h44.26.490,spr_english_2023_list1,2021.1.1,Win32,59.87665409,,,space,1.6209,space,0.8782,space,0.4533,space,0.465,space,0.5248,space,0.3964,space,0.5328,space,0.5124,space,0.6275,n,0,4.4294,0,18,18,18,1,,
,,,,,,,,,,,,,,,,,,,,,,,,,,,,,7,7_1,neutral_gender_someone,1,9,masculine,Someone threatened me but he ran before I reacted.,Was there a threat?,yes,1,Someone,threatened,me,but,he,ran,before,I,reacted.,INC_J_ADV_06,001,2023-07-20_08h44.26.490,spr_english_2023_list1,2021.1.1,Win32,59.87665409,,,space,1.6446,space,0.8447,space,0.4865,space,0.4391,space,1.1127,space,0.5633,space,0.4415,space,0.3429,space,0.4874,y,0,3.91,0,19,19,19,1,,
,,,,,,,,,,,,,,,,,,,,,,,,,,,,,19,19_2,inclusive_gender_reflexive,1,9,themself,James was studying by themself in the library yesterday.,Was James at the library?,yes,1,James,was,studying,by,themself,in,the,library,yesterday.,INC_J_ADV_06,001,2023-07-20_08h44.26.490,spr_english_2023_list1,2021.1.1,Win32,59.87665409,,,space,0.9079,space,0.5302,space,0.9565,space,0.5408,space,0.5572,space,0.5567,space,0.9285,space,0.5401,space,0.6564,y,0,2.2412,0,20,20,20,1,,
,,,,,,,,,,,,,,,,,,,,,,,,,,,,,11,11_1,neutral_gender_someone,1,9,masculine,Someone pushed me but he tripped after I fell.,Was there any sort of physical violence?,yes,1,Someone,pushed,me,but,he,tripped,after,I,fell.,INC_J_ADV_06,001,2023-07-20_08h44.26.490,spr_english_2023_list1,2021.1.1,Win32,59.87665409,,,space,1.5386,space,0.49,space,0.6655,space,0.4882,space,0.7594,space,0.5646,space,0.5417,space,0.5059,space,0.402,y,0,8.383,0,21,21,21,1,,
,,,,,,,,,,,,,,,,,,,,,,,,,,,,,37,37_1,inclusive_gender_they,1,9,she,Emily is grateful because she got nice gifts yesterday.,Did Emily get presents?,yes,1,Emily,is,grateful,because,she,got,nice,gifts,yesterday.,INC_J_ADV_06,001,2023-07-20_08h44.26.490,spr_english_2023_list1,2021.1.1,Win32,59.87665409,,,space,0.6365,space,0.483,space,1.1842,space,0.5675,space,0.8065,space,0.5072,space,0.711,space,0.4755,space,0.5421,y,0,1.8218,0,22,22,22,1,,
,,,,,,,,,,,,,,,,,,,,,,,,,,,,,32,32_1,inclusive_gender_reflexive,1,9,himself,Hugh was stretching by himself in the garden earlier.,Was Hugh in the attic?,no,0,Hugh,was,stretching,by,himself,in,the,garden,earlier.,INC_J_ADV_06,001,2023-07-20_08h44.26.490,spr_english_2023_list1,2021.1.1,Win32,59.87665409,,,space,0.9568,space,0.7117,space,1.6203,space,0.5518,space,0.5129,space,0.4405,space,0.4175,space,0.5607,space,0.4301,n,0,4.0104,0,23,23,23,1,,
,,,,,,,,,,,,,,,,,,,,,,,,,,,,,44,44_2,inclusive_gender_they,1,9,they,Alice is hopeful because they had good luck yesterday.,Is Alice sad?,no,0,Alice,is,hopeful,because,they,had,good,luck,yesterday.,INC_J_ADV_06,001,2023-07-20_08h44.26.490,spr_english_2023_list1,2021.1.1,Win32,59.87665409,,,space,0.6961,space,1.0751,space,0.4828,space,0.7858,space,1.9734,space,0.4637,space,0.3753,space,0.4516,space,0.523,n,0,1.7236,0,24,24,24,1,,
,,,,,,,,,,,,,,,,,,,,,,,,,,,,,3,3_1,neutral_gender_someone,1,9,masculine,Someone hit me but he ran before I reacted,Was there physical violence?,yes,1,Someone,hit,me,but,he,ran,before,I,reacted.,INC_J_ADV_06,001,2023-07-20_08h44.26.490,spr_english_2023_list1,2021.1.1,Win32,59.87665409,,,space,0.732,space,0.9033,space,0.5895,space,0.8421,space,0.4488,space,0.4048,space,0.3687,space,0.2772,space,0.34,y,0,1.9804,0,25,25,25,1,,
,,,,,,,,,,,,,,,,,,,,,,,,,,,,,39,39_1,inclusive_gender_they,1,9,she,Judy is confused because she lost the map ealier.,Did Judy lose something?,yes,1,Judy,is,confused,because,she,lost,the,map,ealier.,INC_J_ADV_06,001,2023-07-20_08h44.26.490,spr_english_2023_list1,2021.1.1,Win32,59.87665409,,,space,1.4343,space,1.7714,space,0.4892,space,5.6634,space,0.6737,space,0.3774,space,0.4073,space,0.4235,space,0.4935,y,0,2.5227,0,26,26,26,1,,
,,,,,,,,,,,,,,,,,,,,,,,,,,,,,18,18_1,inclusive_gender_reflexive,1,9,himself,Luke was reading by himself on the couch earlier.,Was Luke painting?,no,0,Luke,was,reading,by,himself,on,the,couch,earlier.,INC_J_ADV_06,001,2023-07-20_08h44.26.490,spr_english_2023_list1,2021.1.1,Win32,59.87665409,,,space,0.6217,space,0.4745,space,0.5545,space,0.424,space,0.4073,space,0.4616,space,0.4786,space,0.6398,space,0.4278,n,0,2.2459,0,27,27,27,1,,
,,,,,,,,,,,,,,,,,,,,,,,,,,,,,14,14_2,neutral_gender_someone,1,9,neutral,Someone photographed me but they quit before I spoke.,Did someone take pictures?,yes,0,Someone,photographed,me,but,they,quit,before,I,spoke.,INC_J_ADV_06,001,2023-07-20_08h44.26.490,spr_english_2023_list1,2021.1.1,Win32,59.87665409,,,space,0.974,space,0.7746,space,0.5341,space,0.4299,space,0.4041,space,0.4272,space,0.4225,space,0.3746,space,0.4611,y,0,2.7695,0,28,28,28,1,,
,,,,,,,,,,,,,,,,,,,,,,,,,,,,,30,30_1,inclusive_gender_reflexive,1,9,himself,Scott was drinking by himself at the bar earlier.,Was Scott at his apartment?,no,0,Scott,was,drinking,by,himself,at,the,bar,earlier.,INC_J_ADV_06,001,2023-07-20_08h44.26.490,spr_english_2023_list1,2021.1.1,Win32,59.87665409,,,space,1.6351,space,0.4403,space,1.4962,space,0.6736,space,1.0418,space,0.7421,space,0.5914,space,0.3913,space,0.6399,n,0,5.392,0,29,29,29,1,,
,,,,,,,,,,,,,,,,,,,,,,,,,,,,,53,NA,filler,1and2,9,NA,"Waves crashed against the shore, creating a soothing rhythm.",Was the rhythm violent?,,0,Waves,crashed,against,the,"shore,",creating,a,soothing,rhythm.,INC_J_ADV_06,001,2023-07-20_08h44.26.490,spr_english_2023_list1,2021.1.1,Win32,59.87665409,,,space,0.7213,space,3.3403,space,1.3556,space,0.677,space,0.4268,space,1.2892,space,0.3358,space,0.4466,space,0.6361,y,0,5.059,0,30,30,30,1,,
,,,,,,,,,,,,,,,,,,,,,,,,,,,,,28,28_1,inclusive_gender_reflexive,1,9,himself,Tom was swimming by himself at the beach earlier.,Was Tom at the park?,no,0,Tom,was,swimming,by,himself,at,the,beach,earlier.,INC_J_ADV_06,001,2023-07-20_08h44.26.490,spr_english_2023_list1,2021.1.1,Win32,59.87665409,,,space,1.1466,space,1.3489,space,0.732,space,0.4025,space,0.543,space,0.3704,space,0.3892,space,0.3674,space,0.456,n,0,1.2732,0,31,31,31,1,,
,,,,,,,,,,,,,,,,,,,,,,,,,,,,,46,46_2,inclusive_gender_they,1,9,they,Kate is tipsy because they had two drinks earlier.,Is Kate sober?,no,0,Kate,is,tipsy,because,they,had,two,drinks,earlier.,INC_J_ADV_06,001,2023-07-20_08h44.26.490,spr_english_2023_list1,2021.1.1,Win32,59.87665409,,,space,0.7578,space,0.3906,space,0.3668,space,0.6362,space,1.0564,space,0.3572,space,0.2586,space,0.5062,space,0.4417,n,0,2.1396,0,32,32,32,1,,
,,,,,,,,,,,,,,,,,,,,,,,,,,,,,35,35_1,inclusive_gender_they,1,9,she,Susan is joyful because she won the lottery yesterday.,Is Susan in a good mood?,yes,1,Susan,is,joyful,because,she,won,the,lottery,yesterday.,INC_J_ADV_06,001,2023-07-20_08h44.26.490,spr_english_2023_list1,2021.1.1,Win32,59.87665409,,,space,1.2789,space,0.3107,space,0.3734,space,0.8098,space,0.5496,space,0.454,space,0.4116,space,0.7054,space,1.0058,y,0,2.339,0,33,33,33,1,,
,,,,,,,,,,,,,,,,,,,,,,,,,,,,,24,24_1,inclusive_gender_reflexive,1,9,himself,Jake was strolling by himself at the park earlier.,Was Jake swimming?,no,0,Jake,was,strolling,by,himself,at,the,park,earlier.,INC_J_ADV_06,001,2023-07-20_08h44.26.490,spr_english_2023_list1,2021.1.1,Win32,59.87665409,,,space,0.571,space,0.556,space,1.2998,space,0.4959,space,0.5092,space,0.4401,space,0.9579,space,0.6261,space,0.8225,n,0,4.1586,0,34,34,34,1,,
,,,,,,,,,,,,,,,,,,,,,,,,,,,,,52,NA,filler,1and2,9,NA,"I awaited eagerly, anticipating the arrival of the morning.",Was the person waiting for something?,,1,I,awaited,"eagerly,",anticipating,the,arrival,of,the,morning.,INC_J_ADV_06,001,2023-07-20_08h44.26.490,spr_english_2023_list1,2021.1.1,Win32,59.87665409,,,space,0.5743,space,0.3713,space,3.1729,space,0.7833,space,0.8875,space,0.3937,space,0.41,space,0.3769,space,0.5229,y,0,3.8315,0,35,35,35,1,,
,,,,,,,,,,,,,,,,,,,,,,,,,,,,,27,27_2,inclusive_gender_reflexive,1,9,themself,Paul was drawing by themself in the attic yesterday.,Was Paul drawing?,yes,1,Paul,was,drawing,by,themself,in,the,attic,yesterday.,INC_J_ADV_06,001,2023-07-20_08h44.26.490,spr_english_2023_list1,2021.1.1,Win32,59.87665409,,,space,0.6363,space,0.7429,space,0.3718,space,0.524,space,0.5729,space,0.4611,space,0.4026,space,0.4059,space,0.5275,y,0,1.5632,0,36,36,36,1,,
,,,,,,,,,,,,,,,,,,,,,,,,,,,,,57,NA,filler,1and2,9,NA,"The child's laughter echoed, bringing joy to the playground.",Was the child happy?,,1,The,child's,laughter,"echoed,",bringing,joy,to,the,playground.,INC_J_ADV_06,001,2023-07-20_08h44.26.490,spr_english_2023_list1,2021.1.1,Win32,59.87665409,,,space,1.8206,space,0.9611,space,1.2109,space,1.4242,space,2.5427,space,0.4204,space,0.416,space,0.3728,space,0.6843,y,0,1.789,0,37,37,37,1,,
,,,,,,,,,,,,,,,,,,,,,,,,,,,,,45,45_1,inclusive_gender_they,1,9,she,Patricia is upset because she missed the bus earlier.,Is Patricia in a bad mood?,yes,1,Patricia,is,upset,because,she,missed,the,bus,earlier.,INC_J_ADV_06,001,2023-07-20_08h44.26.490,spr_english_2023_list1,2021.1.1,Win32,59.87665409,,,space,0.8713,space,0.5308,space,1.0396,space,0.7386,space,0.8255,space,0.7338,space,0.5153,space,0.5678,space,0.6693,y,0,1.788,0,38,38,38,1,,
,,,,,,,,,,,,,,,,,,,,,,,,,,,,,43,43_1,inclusive_gender_they,1,9,she,Rose is content because she won an award earlier.,Is Rose happy?,yes,1,Rose,is,content,because,she,won,an,award,earlier.,INC_J_ADV_06,001,2023-07-20_08h44.26.490,spr_english_2023_list1,2021.1.1,Win32,59.87665409,,,space,0.7626,space,0.5408,space,0.3744,space,0.7075,space,0.662,space,0.4377,space,0.4062,space,0.4593,space,0.7117,y,0,2.5904,0,39,39,39,1,,
,,,,,,,,,,,,,,,,,,,,,,,,,,,,,29,29_2,inclusive_gender_reflexive,1,9,themself,Kyle was cycling by themself on the trail yesterday.,Was Kyle on the trail?,yes,1,Kyle,was,cycling,by,themself,on,the,trail,yesterday.,INC_J_ADV_06,001,2023-07-20_08h44.26.490,spr_english_2023_list1,2021.1.1,Win32,59.87665409,,,space,4.1722,space,0.6564,space,1.0637,space,0.572,space,0.5807,space,0.6261,space,0.6392,space,0.4381,space,0.5144,y,0,2.4397,0,40,40,40,1,,
,,,,,,,,,,,,,,,,,,,,,,,,,,,,,47,47_1,inclusive_gender_they,1,9,she,Jane is happy because she won the game earlier.,Did Jane win something?,yes,1,Jane,is,happy,because,she,won,the,game,earlier.,INC_J_ADV_06,001,2023-07-20_08h44.26.490,spr_english_2023_list1,2021.1.1,Win32,59.87665409,,,space,0.6893,space,0.573,space,0.411,space,0.3882,space,0.3721,space,0.3724,space,0.3739,space,0.3895,space,0.3987,y,0,2.1649,0,41,41,41,1,,
,,,,,,,,,,,,,,,,,,,,,,,,,,,,,2,2_2,neutral_gender_someone,1,9,neutral,Someone warned me and they helped before I fell.,Did everybody maintain stability?,no,0,Someone,warned,me,and,they,helped,before,I,fell.,INC_J_ADV_06,001,2023-07-20_08h44.26.490,spr_english_2023_list1,2021.1.1,Win32,59.87665409,,,space,0.6565,space,0.7385,space,0.3896,space,0.3585,space,0.3886,space,0.3256,space,0.4786,space,0.4217,space,0.4336,n,0,5.898,0,42,42,42,1,,
,,,,,,,,,,,,,,,,,,,,,,,,,,,,,41,41_1,inclusive_gender_they,1,9,she,Laura is happy because she passed the exam earlier.,Is Laura in a good mood?,yes,1,Laura,is,happy,because,she,passed,the,exam,earlier.,INC_J_ADV_06,001,2023-07-20_08h44.26.490,spr_english_2023_list1,2021.1.1,Win32,59.87665409,,,space,0.5649,space,0.5524,space,0.4528,space,0.5511,space,0.4427,space,0.5285,space,0.3898,space,0.309,space,0.4209,y,0,1.271,0,43,43,43,1,,
,,,,,,,,,,,,,,,,,,,,,,,,,,,,,58,NA,filler,1and2,9,NA,"Scent of flowers wafted, enchanting with its delicate fragrance.",Did the flowers smell bad?,,0,Scent,of,flowers,"wafted,",enchanting,with,its,delicate,fragrance.,INC_J_ADV_06,001,2023-07-20_08h44.26.490,spr_english_2023_list1,2021.1.1,Win32,59.87665409,,,space,0.6257,space,0.5427,space,0.8736,space,2.3267,space,0.9214,space,0.4201,space,0.3993,space,0.4933,space,0.3355,n,0,2.8261,0,44,44,44,1,,
,,,,,,,,,,,,,,,,,,,,,,,,,,,,,42,42_2,inclusive_gender_they,1,9,they,Nancy is upset because they fell on stage yesterday.,Is Nancy calm?,no,0,Nancy,is,upset,because,they,fell,on,stage,yesterday.,INC_J_ADV_06,001,2023-07-20_08h44.26.490,spr_english_2023_list1,2021.1.1,Win32,59.87665409,,,space,0.9039,space,0.3593,space,1.3899,space,0.6748,space,0.4043,space,0.3396,space,0.4331,space,0.7195,space,0.4951,n,0,2.0604,0,45,45,45,1,,
,,,,,,,,,,,,,,,,,,,,,,,,,,,,,48,48_2,inclusive_gender_they,1,9,they,Martha is tired because they read two novels earlier.,Does Martha have a lot of energy?,no,0,Martha,is,tired,because,they,read,two,novels,earlier.,INC_J_ADV_06,001,2023-07-20_08h44.26.490,spr_english_2023_list1,2021.1.1,Win32,59.87665409,,,space,0.5885,space,0.4071,space,0.4238,space,0.5628,space,0.4041,space,0.3596,space,0.3545,space,0.4894,space,0.4259,n,0,2.8359,0,46,46,46,1,,
,,,,,,,,,,,,,,,,,,,,,,,,,,,,,15,15_1,neutral_gender_someone,1,9,masculine,Someone pranked me but he ran before I reacted.,Was a joke mentioned?,yes,1,Someone,pranked,me,but,he,ran,before,I,reacted.,INC_J_ADV_06,001,2023-07-20_08h44.26.490,spr_english_2023_list1,2021.1.1,Win32,59.87665409,,,space,0.6713,space,1.7678,space,0.5566,space,0.5682,space,0.4318,space,0.3429,space,0.4019,space,0.3329,space,0.2885,n,0,6.2769,0,47,47,47,1,,
,,,,,,,,,,,,,,,,,,,,,,,,,,,,,6,6_2,neutral_gender_someone,1,9,neutral,Someone kissed me and they smiled before I blushed.,Did someone steal a pencil?,no,0,Someone,kissed,me,and,they,smiled,before,I,blushed.,INC_J_ADV_06,001,2023-07-20_08h44.26.490,spr_english_2023_list1,2021.1.1,Win32,59.87665409,,,space,2.6103,space,0.5753,space,0.5465,space,0.3535,space,0.3764,space,0.3874,space,0.6485,space,0.7073,space,0.8374,n,0,5.1762,0,48,48,48,1,,
,,,,,,,,,,,,,,,,,,,,,,,,,,,,,49,NA,filler,1and2,9,NA,"The sun behind distant mountains, painting the nice sky.",Was the sun showing?,,1,The,sun,behind,distant,"mountains,",painting,the,nice,sky.,INC_J_ADV_06,001,2023-07-20_08h44.26.490,spr_english_2023_list1,2021.1.1,Win32,59.87665409,,,space,0.6159,space,2.4079,space,1.2582,space,0.6419,space,0.6403,space,0.8143,space,0.5889,space,0.8055,space,1.0925,y,0,4.0989,0,49,49,49,1,,
,,,,,,,,,,,,,,,,,,,,,,,,,,,,,38,38_2,inclusive_gender_they,1,9,they,Ruth is angry because they lost the job yesterday.,Is Ruth peaceful?,no,0,Ruth,is,angry,because,they,lost,the,job,yesterday.,INC_J_ADV_06,001,2023-07-20_08h44.26.490,spr_english_2023_list1,2021.1.1,Win32,59.87665409,,,space,1.3014,space,0.5562,space,0.9526,space,0.5719,space,0.4561,space,0.8937,space,0.3627,space,0.4222,space,0.4858,n,0,1.8242,0,50,50,50,1,,
,,,,,,,,,,,,,,,,,,,,,,,,,,,,,5,5_1,neutral_gender_someone,1,9,masculine,Someone robbed me but he fled before I screamed.,Did a theft occur?,yes,1,Someone,robbed,me,but,he,fled,before,I,screamed.,INC_J_ADV_06,001,2023-07-20_08h44.26.490,spr_english_2023_list1,2021.1.1,Win32,59.87665409,,,space,2.2731,space,0.6896,space,0.4401,space,0.3776,space,0.3411,space,0.9897,space,0.5192,space,0.4586,space,0.5793,y,0,5.0113,0,51,51,51,1,,
,,,,,,,,,,,,,,,,,,,,,,,,,,,,,59,NA,filler,1and2,9,NA,"Colorful balloons floated away, disappearing into the infinite sky.",Did the balloons have many colors?,,1,Colorful,balloons,floated,"away,",disappearing,into,the,infinite,sky.,INC_J_ADV_06,001,2023-07-20_08h44.26.490,spr_english_2023_list1,2021.1.1,Win32,59.87665409,,,space,2.135,space,0.8225,space,0.5766,space,0.5221,space,1.7386,space,0.556,space,0.388,space,0.4401,space,0.4468,y,0,4.1719,0,52,52,52,1,,
,,,,,,,,,,,,,,,,,,,,,,,,,,,,,13,13_1,neutral_gender_someone,1,9,masculine,Someone filmed me but he stopped after I objected.,Did the person use a technological device?,yes,1,Someone,filmed,me,but,he,stopped,after,I,objected.,INC_J_ADV_06,001,2023-07-20_08h44.26.490,spr_english_2023_list1,2021.1.1,Win32,59.87665409,,,space,0.6887,space,1.1903,space,0.4899,space,0.4744,space,0.6229,space,0.558,space,0.5565,space,0.8937,space,0.7068,y,0,3.5897,0,53,53,53,1,,
,,,,,,,,,,,,,,,,,,,,,,,,,,,,,40,40_2,inclusive_gender_they,1,9,they,Clara is relieved because they got a promotion yesterday.,Does Clara feel bad?,no,0,Clara,is,relieved,because,they,got,a,promotion,yesterday.,INC_J_ADV_06,001,2023-07-20_08h44.26.490,spr_english_2023_list1,2021.1.1,Win32,59.87665409,,,space,1.5895,space,0.4271,space,1.2399,space,0.5605,space,0.8572,space,0.44,space,0.3875,space,0.2918,space,0.5086,n,0,1.5751,0,54,54,54,1,,
,,,,,,,,,,,,,,,,,,,,,,,,,,,,,25,25_2,inclusive_gender_reflexive,1,9,themself,Blake was fishing by themself at the riverbank yesterday.,Was Blake fishing?,yes,1,Blake,was,fishing,by,themself,at,the,riverbank,yesterday.,INC_J_ADV_06,001,2023-07-20_08h44.26.490,spr_english_2023_list1,2021.1.1,Win32,59.87665409,,,space,0.7558,space,1.2438,space,0.5224,space,0.5926,space,1.4877,space,0.5253,space,0.3885,space,0.857,space,0.4766,y,0,6.3967,0,55,55,55,1,,
,,,,,,,,,,,,,,,,,,,,,,,,,,,,,51,NA,filler,1and2,9,NA,"The old oak tree stood tall, casting shade below.",Was a big plant mentioned? ,,1,The,old,oak,tree,stood,"tall,",casting,shade,below.,INC_J_ADV_06,001,2023-07-20_08h44.26.490,spr_english_2023_list1,2021.1.1,Win32,59.87665409,,,space,2.2895,space,0.5676,space,0.4679,space,1.3622,space,0.7235,space,1.4612,space,0.811,space,0.6747,space,0.608,y,0,4.5909,0,56,56,56,1,,
,,,,,,,,,,,,,,,,,,,,,,,,,,,,,26,26_1,inclusive_gender_reflexive,1,9,himself,Mark was walking by himself in the park earlier.,Was Mark in the living room?,no,0,Mark,was,walking,by,himself,in,the,park,earlier.,INC_J_ADV_06,001,2023-07-20_08h44.26.490,spr_english_2023_list1,2021.1.1,Win32,59.87665409,,,space,0.6556,space,0.4232,space,0.7596,space,0.6888,space,0.6151,space,0.5726,space,0.3897,space,0.4071,space,0.4556,n,0,3.2727,0,57,57,57,1,,
,,,,,,,,,,,,,,,,,,,,,,,,,,,,,17,17_2,inclusive_gender_reflexive,1,9,themself,John was sitting by themself on the bench yesterday.,Was John on a bench?,yes,1,John,was,sitting,by,themself,on,the,bench,yesterday.,INC_J_ADV_06,001,2023-07-20_08h44.26.490,spr_english_2023_list1,2021.1.1,Win32,59.87665409,,,space,0.5566,space,0.442,space,0.4068,space,0.4466,space,0.7055,space,0.4433,space,0.3971,space,0.4044,space,0.5736,y,0,1.9395,0,58,58,58,1,,
,,,,,,,,,,,,,,,,,,,,,,,,,,,,,8,8_2,neutral_gender_someone,1,9,neutral,Someone serenaded me and they stopped before I applauded.,Did the person dance?,no,0,Someone,serenaded,me,and,they,stopped,before,I,applauded.,INC_J_ADV_06,001,2023-07-20_08h44.26.490,spr_english_2023_list1,2021.1.1,Win32,59.87665409,,,space,1.3064,space,3.2384,space,1.1074,space,0.7734,space,0.9718,space,0.9395,space,0.8083,space,0.991,space,1.7112,y,0,4.4832,0,59,59,59,1,,
,,,,,,,,,,,,,,,,,,,,,,,,,,,,,,,,,,,,,,,,,,,,,,,,INC_J_ADV_06,001,2023-07-20_08h44.26.490,spr_english_2023_list1,2021.1.1,Win32,59.87665409,,,,,,,,,,,,,,,,,,,,,,,,,,,,,y,4.2405
