key_resp.keys,key_resp.rt,key_resp_2.keys,key_resp_2.rt,key_resp_3.keys,key_resp_3.rt,key_resp_4.keys,key_resp_4.rt,key_resp_5.keys,key_resp_5.rt,key_resp_6.keys,key_resp_6.rt,key_resp_7.keys,key_resp_7.rt,key_resp_8.keys,key_resp_8.rt,key_resp_9.keys,key_resp_9.rt,key_resp_10.keys,key_resp_10.rt,key_resp_11.keys,key_resp_11.rt,key_resp_15.keys,key_resp_15.rt,trials_2.thisRepN,trials_2.thisTrialN,trials_2.thisN,trials_2.thisIndex,trials_2.ran,base_sentence_number,version,experiment,list,numb_words,gender,sentence,question,answer,CorrAns,w1,w2,w3,w4,w5,w6,w7,w8,w9,participant,session,date,expName,psychopyVersion,OS,frameRate,key_resp_16.keys,key_resp_16.rt,word1.keys,word1.rt,word2.keys,word2.rt,word3.keys,word3.rt,word4.keys,word4.rt,word5.keys,word5.rt,word6.keys,word6.rt,word7.keys,word7.rt,word8.keys,word8.rt,word9.keys,word9.rt,compquestion.keys,compquestion.corr,compquestion.rt,trials.thisRepN,trials.thisTrialN,trials.thisN,trials.thisIndex,trials.ran,endoftask.keys,endoftask.rt
space,28.334,y,1.6198,space,3.9707,space,1.4183,space,1.9927,space,1.2949,space,1.1287,space,0.9456,space,1.2159,space,1.0544,space,1.883,n,7.7156,0,0,0,0,1,NA,NA,practica,NA,NA,NA,Rita is uncomfortable because it is very hot outside.,Is it cold?,no,0,Rita,is,uncomfortable,because,it,is,very,hot,outside.,ENGNATIVE_2023_04,001,2023-09-17_23h15.37.394,spr_english_2023_list2,2021.1.1,MacIntel,60.0024001,,,,,,,,,,,,,,,,,,,,,,,,,,,,,,
,,,,space,1.5426,space,1.1111,space,1.1774,space,1.113,space,1.1658,space,0.9469,space,0.7951,space,1.1251,space,1.3097,n,4.4946,0,1,1,1,1,NA,NA,practica,NA,NA,NA,Peter was running by himself in the park yesterday.,Was Peter painting the wall?,no,0,Peter,was,running,by,himself,in,the,park,yesterday.,ENGNATIVE_2023_04,001,2023-09-17_23h15.37.394,spr_english_2023_list2,2021.1.1,MacIntel,60.0024001,,,,,,,,,,,,,,,,,,,,,,,,,,,,,,
,,,,space,1.4615,space,1.0661,space,1.2357,space,1.332,space,1.307,space,1.1293,space,1.0656,space,1.3641,space,1.491,y,7.3341,0,2,2,2,1,NA,NA,practica,NA,NA,NA,Hannah is watching tv because she is really bored.,Is Hannah in front of a screen?,yes,1,Hannah,is,watching,tv,because,she,is,really,bored.,ENGNATIVE_2023_04,001,2023-09-17_23h15.37.394,spr_english_2023_list2,2021.1.1,MacIntel,60.0024001,,,,,,,,,,,,,,,,,,,,,,,,,,,,,,
,,,,,,,,,,,,,,,,,,,,,,,,,,,,,1,1_2,neutral_gender_someone,2,9,neutral,Someone called me but they stopped before I answered,Did the person try to communicate?,yes,1,Someone,called,me,but,they,stopped,before,I,answered.,ENGNATIVE_2023_04,001,2023-09-17_23h15.37.394,spr_english_2023_list2,2021.1.1,MacIntel,60.0024001,space,87.4335,space,1.4226,space,1.1148,space,0.8503,space,0.9792,space,1.1663,space,1.3116,space,1.6924,space,1.1974,space,1.226,y,0,3.6797,0,0,0,0,1,,
,,,,,,,,,,,,,,,,,,,,,,,,,,,,,34,34_1,inclusive_gender_they,2,9,she,Mary is sad because she lost the dog earlier.,Did mary lose something?,no,0,Mary,is,sad,because,she,lost,the,dog,earlier.,ENGNATIVE_2023_04,001,2023-09-17_23h15.37.394,spr_english_2023_list2,2021.1.1,MacIntel,60.0024001,,,space,1.3094,space,1.0708,space,1.1062,space,1.3792,space,1.1334,space,1.3882,space,0.8956,space,1.1129,space,1.4338,y,0,1.7121,0,1,1,1,1,,
,,,,,,,,,,,,,,,,,,,,,,,,,,,,,31,31_1,inclusive_gender_reflexive,2,9,himself,Troy was singing by himself in the shower yesterday.,Was Troy singing?,yes,1,Troy,was,singing,by,himself,in,the,shower,yesterday.,ENGNATIVE_2023_04,001,2023-09-17_23h15.37.394,spr_english_2023_list2,2021.1.1,MacIntel,60.0024001,,,space,1.1823,space,0.9107,space,1.1336,space,1.0063,space,1.3475,space,1.2317,space,1.035,space,1.3029,space,1.4316,y,0,1.3241,0,2,2,2,1,,
,,,,,,,,,,,,,,,,,,,,,,,,,,,,,37,37_2,inclusive_gender_they,2,9,they,Emily is grateful because they got nice gifts yesterday.,Did Emily get presents?,yes,1,Emily,is,grateful,because,they,got,nice,gifts,yesterday.,ENGNATIVE_2023_04,001,2023-09-17_23h15.37.394,spr_english_2023_list2,2021.1.1,MacIntel,60.0024001,,,space,1.2688,space,1.1864,space,0.9135,space,1.1897,space,1.0162,space,0.9641,space,0.9816,space,0.848,space,1.4811,y,0,1.6197,0,3,3,3,1,,
,,,,,,,,,,,,,,,,,,,,,,,,,,,,,55,NA,filler,1and2,9,NA,The aroma of freshly brewed coffee filled the room.,Was the smell nice?,,1,The,aroma,of,freshly,brewed,coffee,filled,the,room.,ENGNATIVE_2023_04,001,2023-09-17_23h15.37.394,spr_english_2023_list2,2021.1.1,MacIntel,60.0024001,,,space,1.2134,space,1.2645,space,0.9298,space,1.1974,space,0.9461,space,1.2755,space,1.1382,space,1.1832,space,1.5131,y,0,1.7226,0,4,4,4,1,,
,,,,,,,,,,,,,,,,,,,,,,,,,,,,,30,30_2,inclusive_gender_reflexive,2,9,themself,Scott was drinking by themself at the bar earlier.,Was Scott at his apartment?,no,0,Scott,was,drinking,by,themself,at,the,bar,earlier.,ENGNATIVE_2023_04,001,2023-09-17_23h15.37.394,spr_english_2023_list2,2021.1.1,MacIntel,60.0024001,,,space,1.4953,space,0.9302,space,1.0453,space,0.8509,space,1.7794,space,1.0869,space,0.8177,space,0.7991,space,1.2456,n,0,1.6663,0,5,5,5,1,,
,,,,,,,,,,,,,,,,,,,,,,,,,,,,,14,14_1,neutral_gender_someone,2,9,masculine,Someone photographed me but he quit before I spoke.,Did someone take pictures?,yes,0,Someone,photographed,me,but,he,quit,before,I,spoke.,ENGNATIVE_2023_04,001,2023-09-17_23h15.37.394,spr_english_2023_list2,2021.1.1,MacIntel,60.0024001,,,space,1.3106,space,1.4453,space,0.9222,space,0.8748,space,0.8712,space,0.8946,space,1.1,space,0.8332,space,1.4339,y,0,1.8789,0,6,6,6,1,,
,,,,,,,,,,,,,,,,,,,,,,,,,,,,,28,28_2,inclusive_gender_reflexive,2,9,themself,Tom was swimming by themself at the beach earlier.,Was Tom at the park?,no,0,Tom,was,swimming,by,themself,at,the,beach,earlier.,ENGNATIVE_2023_04,001,2023-09-17_23h15.37.394,spr_english_2023_list2,2021.1.1,MacIntel,60.0024001,,,space,1.012,space,0.9919,space,1.0658,space,1.0673,space,1.4812,space,0.837,space,0.8851,space,0.9596,space,1.2632,n,0,1.8407,0,7,7,7,1,,
,,,,,,,,,,,,,,,,,,,,,,,,,,,,,49,NA,filler,1and2,9,NA,"The sun behind distant mountains, painting the nice sky.",Was the sun showing?,,1,The,sun,behind,distant,"mountains,",painting,the,nice,sky.,ENGNATIVE_2023_04,001,2023-09-17_23h15.37.394,spr_english_2023_list2,2021.1.1,MacIntel,60.0024001,,,space,0.7884,space,0.896,space,0.8687,space,1.0338,space,1.0975,space,0.7524,space,0.8063,space,0.8007,space,1.2787,y,0,3.1672,0,8,8,8,1,,
,,,,,,,,,,,,,,,,,,,,,,,,,,,,,38,38_1,inclusive_gender_they,2,9,she,Ruth is angry because she lost the job yesterday.,Is Ruth peaceful?,no,0,Ruth,is,angry,because,she,lost,the,job,yesterday.,ENGNATIVE_2023_04,001,2023-09-17_23h15.37.394,spr_english_2023_list2,2021.1.1,MacIntel,60.0024001,,,space,0.7731,space,0.6481,space,0.8109,space,1.0331,space,0.8467,space,0.8142,space,0.7556,space,0.7628,space,1.3671,n,0,1.2975,0,9,9,9,1,,
,,,,,,,,,,,,,,,,,,,,,,,,,,,,,19,19_1,inclusive_gender_reflexive,2,9,himself,James was studying by himself in the library yesterday.,Was James at the library?,yes,1,James,was,studying,by,himself,in,the,library,yesterday.,ENGNATIVE_2023_04,001,2023-09-17_23h15.37.394,spr_english_2023_list2,2021.1.1,MacIntel,60.0024001,,,space,0.6291,space,0.5674,space,0.6375,space,0.5213,space,0.5417,space,0.6515,space,0.6181,space,0.5459,space,0.7224,y,0,1.4364,0,10,10,10,1,,
,,,,,,,,,,,,,,,,,,,,,,,,,,,,,8,8_1,neutral_gender_someone,2,9,masculine,Someone serenaded me and he stopped before I applauded.,Did the person dance?,no,0,Someone,serenaded,me,and,he,stopped,before,I,applauded.,ENGNATIVE_2023_04,001,2023-09-17_23h15.37.394,spr_english_2023_list2,2021.1.1,MacIntel,60.0024001,,,space,1.1562,space,1.3416,space,0.8564,space,0.7964,space,0.7847,space,0.7674,space,0.7362,space,0.7046,space,0.8967,n,0,1.7386,0,11,11,11,1,,
,,,,,,,,,,,,,,,,,,,,,,,,,,,,,32,32_2,inclusive_gender_reflexive,2,9,themself,Hugh was stretching by themself in the garden earlier.,Was Hugh in the attic?,no,0,Hugh,was,stretching,by,themself,in,the,garden,earlier.,ENGNATIVE_2023_04,001,2023-09-17_23h15.37.394,spr_english_2023_list2,2021.1.1,MacIntel,60.0024001,,,space,0.8483,space,0.7692,space,0.9957,space,0.7958,space,1.3296,space,1.0012,space,0.7829,space,0.9121,space,1.1973,n,0,1.476,0,12,12,12,1,,
,,,,,,,,,,,,,,,,,,,,,,,,,,,,,58,NA,filler,1and2,9,NA,"Scent of flowers wafted, enchanting with its delicate fragrance.",Did the flowers smell bad?,,0,Scent,of,flowers,"wafted,",enchanting,with,its,delicate,fragrance.,ENGNATIVE_2023_04,001,2023-09-17_23h15.37.394,spr_english_2023_list2,2021.1.1,MacIntel,60.0024001,,,space,1.0454,space,0.6157,space,0.7496,space,1.3207,space,0.8015,space,0.5984,space,0.602,space,0.5406,space,0.7234,n,0,1.6898,0,13,13,13,1,,
,,,,,,,,,,,,,,,,,,,,,,,,,,,,,17,17_1,inclusive_gender_reflexive,2,9,himself,John was sitting by himself on the bench yesterday.,Was John on a bench?,yes,1,John,was,sitting,by,himself,on,the,bench,yesterday.,ENGNATIVE_2023_04,001,2023-09-17_23h15.37.394,spr_english_2023_list2,2021.1.1,MacIntel,60.0024001,,,space,0.9406,space,0.5595,space,0.4622,space,0.6201,space,0.5198,space,1.382,space,0.7149,space,0.8173,space,0.5044,y,0,3.2479,0,14,14,14,1,,
,,,,,,,,,,,,,,,,,,,,,,,,,,,,,5,5_2,neutral_gender_someone,2,9,neutral,Someone robbed me but they fled before I screamed.,Did a theft occur?,yes,1,Someone,robbed,me,but,they,fled,before,I,screamed.,ENGNATIVE_2023_04,001,2023-09-17_23h15.37.394,spr_english_2023_list2,2021.1.1,MacIntel,60.0024001,,,space,0.6987,space,0.5307,space,0.4193,space,0.4162,space,0.4922,space,0.565,space,0.4475,space,0.8743,space,0.9529,y,0,2.6628,0,15,15,15,1,,
,,,,,,,,,,,,,,,,,,,,,,,,,,,,,7,7_2,neutral_gender_someone,2,9,neutral,Someone threatened me but they ran before I reacted.,Was there a threat?,yes,1,Someone,threatened,me,but,they,ran,before,I,reacted.,ENGNATIVE_2023_04,001,2023-09-17_23h15.37.394,spr_english_2023_list2,2021.1.1,MacIntel,60.0024001,,,space,1.2005,space,0.6604,space,0.5219,space,0.5666,space,0.7758,space,0.6219,space,0.7689,space,0.5671,space,0.6135,y,0,2.1365,0,16,16,16,1,,
,,,,,,,,,,,,,,,,,,,,,,,,,,,,,26,26_2,inclusive_gender_reflexive,2,9,themself,Mark was walking by themself in the park earlier.,Was Mark in the living room?,no,0,Mark,was,walking,by,themself,in,the,park,earlier.,ENGNATIVE_2023_04,001,2023-09-17_23h15.37.394,spr_english_2023_list2,2021.1.1,MacIntel,60.0024001,,,space,0.726,space,0.4595,space,0.4297,space,0.4653,space,1.2137,space,0.514,space,0.4363,space,0.7287,space,0.8737,n,0,1.5105,0,17,17,17,1,,
,,,,,,,,,,,,,,,,,,,,,,,,,,,,,44,44_1,inclusive_gender_they,2,9,she,Alice is hopeful because she had good luck yesterday.,Is Alice sad?,no,0,Alice,is,hopeful,because,she,had,good,luck,yesterday.,ENGNATIVE_2023_04,001,2023-09-17_23h15.37.394,spr_english_2023_list2,2021.1.1,MacIntel,60.0024001,,,space,0.6678,space,0.4971,space,0.4914,space,0.7994,space,0.5086,space,0.5333,space,0.547,space,0.6678,space,0.8256,n,0,2.0439,0,18,18,18,1,,
,,,,,,,,,,,,,,,,,,,,,,,,,,,,,52,NA,filler,1and2,9,NA,"I awaited eagerly, anticipating the arrival of the morning.",Was the person waiting for something?,,1,I,awaited,"eagerly,",anticipating,the,arrival,of,the,morning.,ENGNATIVE_2023_04,001,2023-09-17_23h15.37.394,spr_english_2023_list2,2021.1.1,MacIntel,60.0024001,,,space,0.5748,space,0.4364,space,0.5296,space,0.7199,space,0.7162,space,0.7284,space,0.516,space,0.4835,space,0.5658,y,0,2.0414,0,19,19,19,1,,
,,,,,,,,,,,,,,,,,,,,,,,,,,,,,27,27_1,inclusive_gender_reflexive,2,9,himself,Paul was drawing by himself in the attic yesterday.,Was Paul drawing?,yes,1,Paul,was,drawing,by,himself,in,the,attic,yesterday.,ENGNATIVE_2023_04,001,2023-09-17_23h15.37.394,spr_english_2023_list2,2021.1.1,MacIntel,60.0024001,,,space,0.8874,space,0.6094,space,0.4594,space,0.795,space,0.5748,space,1.0528,space,0.8481,space,0.9471,space,1.2315,y,0,1.3413,0,20,20,20,1,,
,,,,,,,,,,,,,,,,,,,,,,,,,,,,,16,16_1,neutral_gender_someone,2,9,masculine,Someone passed me and he sped before I noticed.,Was everybody going slow?,no,0,Someone,passed,me,and,he,sped,before,I,noticed.,ENGNATIVE_2023_04,001,2023-09-17_23h15.37.394,spr_english_2023_list2,2021.1.1,MacIntel,60.0024001,,,space,0.617,space,0.4457,space,0.372,space,0.3735,space,0.4159,space,0.5506,space,0.4487,space,0.505,space,0.5109,n,0,4.7288,0,21,21,21,1,,
,,,,,,,,,,,,,,,,,,,,,,,,,,,,,53,NA,filler,1and2,9,NA,"Waves crashed against the shore, creating a soothing rhythm.",Was the rhythm violent?,,0,Waves,crashed,against,the,"shore,",creating,a,soothing,rhythm.,ENGNATIVE_2023_04,001,2023-09-17_23h15.37.394,spr_english_2023_list2,2021.1.1,MacIntel,60.0024001,,,space,1.8726,space,0.5583,space,0.7532,space,0.6809,space,0.5807,space,0.5482,space,0.4979,space,0.3722,space,0.3934,n,0,1.744,0,22,22,22,1,,
,,,,,,,,,,,,,,,,,,,,,,,,,,,,,42,42_1,inclusive_gender_they,2,9,she,Nancy is upset because she fell on stage yesterday.,Is Nancy calm?,no,0,Nancy,is,upset,because,she,fell,on,stage,yesterday.,ENGNATIVE_2023_04,001,2023-09-17_23h15.37.394,spr_english_2023_list2,2021.1.1,MacIntel,60.0024001,,,space,0.623,space,0.4066,space,0.5366,space,0.545,space,0.4651,space,0.3947,space,0.3824,space,0.4228,space,0.6702,n,0,1.6852,0,23,23,23,1,,
,,,,,,,,,,,,,,,,,,,,,,,,,,,,,4,4_1,neutral_gender_someone,2,9,masculine,Someone punched me but he ran before I noticed.,Was everybody involved peaceful?,no,0,Someone,punched,me,but,he,ran,before,I,noticed.,ENGNATIVE_2023_04,001,2023-09-17_23h15.37.394,spr_english_2023_list2,2021.1.1,MacIntel,60.0024001,,,space,0.5503,space,0.2995,space,0.3928,space,0.4951,space,0.4492,space,0.4332,space,0.4857,space,0.6014,space,0.5536,n,0,1.7303,0,24,24,24,1,,
,,,,,,,,,,,,,,,,,,,,,,,,,,,,,40,40_1,inclusive_gender_they,2,9,she,Clara is relieved because she got a promotion yesterday.,Does Clara feel bad?,no,0,Clara,is,relieved,because,she,got,a,promotion,yesterday.,ENGNATIVE_2023_04,001,2023-09-17_23h15.37.394,spr_english_2023_list2,2021.1.1,MacIntel,60.0024001,,,space,0.6234,space,0.3707,space,0.4468,space,0.4334,space,0.4486,space,0.4834,space,0.467,space,0.6342,space,0.4658,n,0,1.3589,0,25,25,25,1,,
,,,,,,,,,,,,,,,,,,,,,,,,,,,,,23,23_1,inclusive_gender_reflexive,2,9,himself,Ben was dancing by himself in the kitchen yesterday.,Was Ben in the kitchen?,yes,1,Ben,was,dancing,by,himself,in,the,kitchen,yesterday.,ENGNATIVE_2023_04,001,2023-09-17_23h15.37.394,spr_english_2023_list2,2021.1.1,MacIntel,60.0024001,,,space,0.53,space,0.4451,space,0.4061,space,0.4491,space,0.4637,space,0.6834,space,0.4071,space,0.4659,space,0.5172,y,0,5.0499,0,26,26,26,1,,
,,,,,,,,,,,,,,,,,,,,,,,,,,,,,15,15_2,neutral_gender_someone,2,9,neutral,Someone pranked me but they ran before I reacted.,Was a joke mentioned?,yes,1,Someone,pranked,me,but,they,ran,before,I,reacted.,ENGNATIVE_2023_04,001,2023-09-17_23h15.37.394,spr_english_2023_list2,2021.1.1,MacIntel,60.0024001,,,space,0.8131,space,0.3832,space,0.3896,space,0.3581,space,0.3996,space,0.4465,space,0.4359,space,0.4478,space,0.456,y,0,3.049,0,27,27,27,1,,
,,,,,,,,,,,,,,,,,,,,,,,,,,,,,3,3_2,neutral_gender_someone,2,9,neutral,Someone hit me but they ran before I reacted,Was there physical violence?,yes,1,Someone,hit,me,but,they,ran,before,I,reacted.,ENGNATIVE_2023_04,001,2023-09-17_23h15.37.394,spr_english_2023_list2,2021.1.1,MacIntel,60.0024001,,,space,0.9022,space,0.4275,space,0.3859,space,0.3851,space,0.4362,space,0.4023,space,0.3745,space,0.4668,space,0.5361,y,0,1.8117,0,28,28,28,1,,
,,,,,,,,,,,,,,,,,,,,,,,,,,,,,50,NA,filler,1and2,9,NA,"He smiled warmly, extending a hand in friendly greeting.",Did someone fall?,,0,He,smiled,"warmly,",extending,a,hand,in,friendly,greeting.,ENGNATIVE_2023_04,001,2023-09-17_23h15.37.394,spr_english_2023_list2,2021.1.1,MacIntel,60.0024001,,,space,0.6246,space,0.4037,space,0.5884,space,0.4864,space,0.4504,space,0.3791,space,0.4335,space,0.5334,space,0.5464,n,0,1.0848,0,29,29,29,1,,
,,,,,,,,,,,,,,,,,,,,,,,,,,,,,41,41_2,inclusive_gender_they,2,9,they,Laura is happy because they passed the exam earlier.,Is Laura in a good mood?,yes,1,Laura,is,happy,because,they,passed,the,exam,earlier.,ENGNATIVE_2023_04,001,2023-09-17_23h15.37.394,spr_english_2023_list2,2021.1.1,MacIntel,60.0024001,,,space,0.4624,space,0.3833,space,0.3494,space,0.356,space,0.4321,space,0.4324,space,0.4176,space,0.3832,space,0.4403,y,0,1.4408,0,30,30,30,1,,
,,,,,,,,,,,,,,,,,,,,,,,,,,,,,54,NA,filler,1and2,9,NA,"She danced a lot, her movements resembling pure poetry.",Was it an unpleasant dance?,,0,She,danced,a,"lot,",her,movements,resembling,pure,poetry.,ENGNATIVE_2023_04,001,2023-09-17_23h15.37.394,spr_english_2023_list2,2021.1.1,MacIntel,60.0024001,,,space,0.6208,space,0.3984,space,0.6671,space,0.5133,space,0.5068,space,0.3881,space,0.4983,space,0.4874,space,0.5819,n,0,2.0577,0,31,31,31,1,,
,,,,,,,,,,,,,,,,,,,,,,,,,,,,,24,24_2,inclusive_gender_reflexive,2,9,themself,Jake was strolling by themself at the park earlier.,Was Jake swimming?,no,0,Jake,was,strolling,by,themself,at,the,park,earlier.,ENGNATIVE_2023_04,001,2023-09-17_23h15.37.394,spr_english_2023_list2,2021.1.1,MacIntel,60.0024001,,,space,0.4916,space,0.3501,space,0.4079,space,0.4292,space,0.4267,space,0.7585,space,0.4275,space,0.3635,space,0.3713,n,0,1.137,0,32,32,32,1,,
,,,,,,,,,,,,,,,,,,,,,,,,,,,,,46,46_1,inclusive_gender_they,2,9,she,Kate is tipsy because she had two drinks earlier.,Is Kate sober?,no,0,Kate,is,tipsy,because,she,had,two,drinks,earlier.,ENGNATIVE_2023_04,001,2023-09-17_23h15.37.394,spr_english_2023_list2,2021.1.1,MacIntel,60.0024001,,,space,0.4133,space,0.4152,space,0.3722,space,0.4647,space,0.459,space,0.4362,space,0.4692,space,0.4368,space,0.504,n,0,1.1402,0,33,33,33,1,,
,,,,,,,,,,,,,,,,,,,,,,,,,,,,,25,25_1,inclusive_gender_reflexive,2,9,himself,Blake was fishing by himself at the riverbank yesterday.,Was Blake fishing?,yes,1,Blake,was,fishing,by,himself,at,the,riverbank,yesterday.,ENGNATIVE_2023_04,001,2023-09-17_23h15.37.394,spr_english_2023_list2,2021.1.1,MacIntel,60.0024001,,,space,0.4952,space,0.3356,space,0.4075,space,0.4139,space,0.3416,space,0.5176,space,0.3713,space,0.3832,space,0.6146,y,0,1.6625,0,34,34,34,1,,
,,,,,,,,,,,,,,,,,,,,,,,,,,,,,43,43_2,inclusive_gender_they,2,9,they,Rose is content because they won an award earlier.,Is Rose happy?,yes,1,Rose,is,content,because,they,won,an,award,earlier.,ENGNATIVE_2023_04,001,2023-09-17_23h15.37.394,spr_english_2023_list2,2021.1.1,MacIntel,60.0024001,,,space,1.6439,space,0.6829,space,0.7865,space,0.9882,space,0.7147,space,0.6507,space,0.6983,space,0.852,space,1.2745,y,0,1.8231,0,35,35,35,1,,
,,,,,,,,,,,,,,,,,,,,,,,,,,,,,51,NA,filler,1and2,9,NA,"The old oak tree stood tall, casting shade below.",Was a big plant mentioned? ,,1,The,old,oak,tree,stood,"tall,",casting,shade,below.,ENGNATIVE_2023_04,001,2023-09-17_23h15.37.394,spr_english_2023_list2,2021.1.1,MacIntel,60.0024001,,,space,0.6244,space,0.3781,space,0.4288,space,0.4025,space,0.4474,space,0.4798,space,0.6397,space,0.5311,space,0.6034,y,0,2.0224,0,36,36,36,1,,
,,,,,,,,,,,,,,,,,,,,,,,,,,,,,22,22_2,inclusive_gender_reflexive,2,9,themself,Max was painting by themself in the studio earlier.,Was Max watching tv?,no,0,Max,was,painting,by,themself,in,the,studio,earlier.,ENGNATIVE_2023_04,001,2023-09-17_23h15.37.394,spr_english_2023_list2,2021.1.1,MacIntel,60.0024001,,,space,0.5148,space,0.3666,space,0.5603,space,0.5104,space,0.4225,space,0.8798,space,0.35,space,0.3755,space,0.5296,n,0,1.7387,0,37,37,37,1,,
,,,,,,,,,,,,,,,,,,,,,,,,,,,,,33,33_2,inclusive_gender_they,2,9,they,Sara is happy because they found new friends yesterday.,Is Sara in a good mood?,yes,1,Sara,is,happy,because,they,found,new,friends,yesterday.,ENGNATIVE_2023_04,001,2023-09-17_23h15.37.394,spr_english_2023_list2,2021.1.1,MacIntel,60.0024001,,,space,1.0812,space,0.3555,space,0.3643,space,0.3701,space,0.6814,space,0.4643,space,0.4823,space,0.5516,space,0.4834,y,0,1.3238,0,38,38,38,1,,
,,,,,,,,,,,,,,,,,,,,,,,,,,,,,9,9_2,neutral_gender_someone,2,9,neutral,Someone helped me but they left before I finished.,Did the person offer some help?,yes,1,Someone,helped,me,but,they,left,before,I,finished.,ENGNATIVE_2023_04,001,2023-09-17_23h15.37.394,spr_english_2023_list2,2021.1.1,MacIntel,60.0024001,,,space,0.5452,space,0.4493,space,0.3746,space,0.4388,space,0.3867,space,0.4136,space,0.3131,space,0.5882,space,0.5352,n,0,6.1194,0,39,39,39,1,,
,,,,,,,,,,,,,,,,,,,,,,,,,,,,,10,10_1,neutral_gender_someone,2,9,masculine,Someone shushed me but he stopped before I noticed.,Was the person happy to hear a voice?,no,0,Someone,shushed,me,but,he,stopped,before,I,noticed.,ENGNATIVE_2023_04,001,2023-09-17_23h15.37.394,spr_english_2023_list2,2021.1.1,MacIntel,60.0024001,,,space,0.4845,space,0.3279,space,0.5275,space,0.4049,space,0.4547,space,0.4629,space,0.4082,space,0.4739,space,0.3374,n,0,1.9904,0,40,40,40,1,,
,,,,,,,,,,,,,,,,,,,,,,,,,,,,,11,11_2,neutral_gender_someone,2,9,neutral,Someone pushed me but they tripped after I fell.,Was there any sort of physical violence?,yes,1,Someone,pushed,me,but,they,tripped,after,I,fell.,ENGNATIVE_2023_04,001,2023-09-17_23h15.37.394,spr_english_2023_list2,2021.1.1,MacIntel,60.0024001,,,space,0.4717,space,0.383,space,0.3719,space,0.3447,space,0.3307,space,0.3831,space,0.4304,space,0.4739,space,0.3561,y,0,4.7212,0,41,41,41,1,,
,,,,,,,,,,,,,,,,,,,,,,,,,,,,,39,39_2,inclusive_gender_they,2,9,they,Judy is confused because they lost the map ealier.,Did Judy lose something?,yes,1,Judy,is,confused,because,they,lost,the,map,ealier.,ENGNATIVE_2023_04,001,2023-09-17_23h15.37.394,spr_english_2023_list2,2021.1.1,MacIntel,60.0024001,,,space,1.0504,space,0.3979,space,0.3973,space,0.4055,space,0.4359,space,0.6651,space,0.6805,space,0.383,space,0.4633,y,0,1.3238,0,42,42,42,1,,
,,,,,,,,,,,,,,,,,,,,,,,,,,,,,57,NA,filler,1and2,9,NA,"The child's laughter echoed, bringing joy to the playground.",Was the child happy?,,1,The,child's,laughter,"echoed,",bringing,joy,to,the,playground.,ENGNATIVE_2023_04,001,2023-09-17_23h15.37.394,spr_english_2023_list2,2021.1.1,MacIntel,60.0024001,,,space,0.4268,space,0.3314,space,0.3491,space,0.369,space,0.4345,space,0.3954,space,0.3952,space,0.4298,space,0.429,y,0,1.0398,0,43,43,43,1,,
,,,,,,,,,,,,,,,,,,,,,,,,,,,,,21,21_1,inclusive_gender_reflexive,2,9,himself,Jack was cooking by himself in the kitchen yesterday.,Was Jack in the kitchen?,yes,1,Jack,was,cooking,by,himself,in,the,kitchen,yesterday.,ENGNATIVE_2023_04,001,2023-09-17_23h15.37.394,spr_english_2023_list2,2021.1.1,MacIntel,60.0024001,,,space,0.4487,space,0.4143,space,0.3675,space,0.3664,space,0.3589,space,0.5506,space,0.3854,space,0.3856,space,0.5019,y,0,1.7699,0,44,44,44,1,,
,,,,,,,,,,,,,,,,,,,,,,,,,,,,,35,35_2,inclusive_gender_they,2,9,they,Susan is joyful because they won the lottery yesterday.,Is Susan in a good mood?,yes,1,Susan,is,joyful,because,they,won,the,lottery,yesterday.,ENGNATIVE_2023_04,001,2023-09-17_23h15.37.394,spr_english_2023_list2,2021.1.1,MacIntel,60.0024001,,,space,0.4966,space,0.4034,space,0.432,space,0.3897,space,0.5316,space,0.4011,space,0.4012,space,0.3859,space,0.4515,y,0,1.7701,0,45,45,45,1,,
,,,,,,,,,,,,,,,,,,,,,,,,,,,,,36,36_1,inclusive_gender_they,2,9,she,Helen is anxious because she dread the presentation earlier.,Did Helen's presentation go well?,no,0,Helen,is,anxious,because,she,dread,the,presentation,earlier.,ENGNATIVE_2023_04,001,2023-09-17_23h15.37.394,spr_english_2023_list2,2021.1.1,MacIntel,60.0024001,,,space,0.442,space,0.3575,space,0.433,space,0.4681,space,0.5011,space,0.3685,space,0.4682,space,0.6308,space,0.921,n,0,10.3627,0,46,46,46,1,,
,,,,,,,,,,,,,,,,,,,,,,,,,,,,,56,NA,filler,1and2,9,NA,"They went on an exciting trip, embracing their destiny.",Did they stay home?,,0,They,went,on,an,exciting,"trip,",embracing,their,destiny.,ENGNATIVE_2023_04,001,2023-09-17_23h15.37.394,spr_english_2023_list2,2021.1.1,MacIntel,60.0024001,,,space,0.6113,space,0.4406,space,0.4002,space,0.4677,space,0.3632,space,0.4055,space,0.7116,space,0.3966,space,0.3493,n,0,1.6802,0,47,47,47,1,,
,,,,,,,,,,,,,,,,,,,,,,,,,,,,,2,2_1,neutral_gender_someone,2,9,masculine,Someone warned me and he helped before I fell.,Did everybody maintain stability?,no,0,Someone,warned,me,and,he,helped,before,I,fell.,ENGNATIVE_2023_04,001,2023-09-17_23h15.37.394,spr_english_2023_list2,2021.1.1,MacIntel,60.0024001,,,space,0.5815,space,0.3485,space,0.33,space,0.3363,space,0.33,space,0.3359,space,0.555,space,0.3638,space,0.4161,y,0,12.8422,0,48,48,48,1,,
,,,,,,,,,,,,,,,,,,,,,,,,,,,,,45,45_2,inclusive_gender_they,2,9,they,Patricia is upset because they missed the bus earlier.,Is Patricia in a bad mood?,yes,1,Patricia,is,upset,because,they,missed,the,bus,earlier.,ENGNATIVE_2023_04,001,2023-09-17_23h15.37.394,spr_english_2023_list2,2021.1.1,MacIntel,60.0024001,,,space,1.2104,space,0.3982,space,0.2975,space,0.3505,space,0.3293,space,0.4505,space,0.3492,space,0.2793,space,0.4653,y,0,1.7773,0,49,49,49,1,,
,,,,,,,,,,,,,,,,,,,,,,,,,,,,,29,29_1,inclusive_gender_reflexive,2,9,himself,Kyle was cycling by himself on the trail yesterday.,Was Kyle on the trail?,yes,1,Kyle,was,cycling,by,himself,on,the,trail,yesterday.,ENGNATIVE_2023_04,001,2023-09-17_23h15.37.394,spr_english_2023_list2,2021.1.1,MacIntel,60.0024001,,,space,0.524,space,0.3832,space,0.3687,space,0.4314,space,0.316,space,0.4143,space,0.3848,space,0.4632,space,0.3823,y,0,1.2557,0,50,50,50,1,,
,,,,,,,,,,,,,,,,,,,,,,,,,,,,,59,NA,filler,1and2,9,NA,"Colorful balloons floated away, disappearing into the infinite sky.",Did the balloons have many colors?,,1,Colorful,balloons,floated,"away,",disappearing,into,the,infinite,sky.,ENGNATIVE_2023_04,001,2023-09-17_23h15.37.394,spr_english_2023_list2,2021.1.1,MacIntel,60.0024001,,,space,0.3748,space,0.2574,space,0.4767,space,0.4675,space,0.5598,space,1.2983,space,0.518,space,0.4627,space,0.6858,y,0,2.1162,0,51,51,51,1,,
,,,,,,,,,,,,,,,,,,,,,,,,,,,,,20,20_2,inclusive_gender_reflexive,2,9,themself,Mike was jogging by themself in the park earlier.,Was Mike sleeping?,no,0,Mike,was,jogging,by,themself,in,the,park,earlier.,ENGNATIVE_2023_04,001,2023-09-17_23h15.37.394,spr_english_2023_list2,2021.1.1,MacIntel,60.0024001,,,space,0.6105,space,0.3338,space,0.4618,space,0.5537,space,0.551,space,0.906,space,1.0339,space,0.5045,space,0.5299,n,0,3.3644,0,52,52,52,1,,
,,,,,,,,,,,,,,,,,,,,,,,,,,,,,48,48_1,inclusive_gender_they,2,9,she,Martha is tired because she read two novels earlier.,Does Martha have a lot of energy?,no,0,Martha,is,tired,because,she,read,two,novels,earlier.,ENGNATIVE_2023_04,001,2023-09-17_23h15.37.394,spr_english_2023_list2,2021.1.1,MacIntel,60.0024001,,,space,0.636,space,0.479,space,0.4798,space,0.5852,space,0.5863,space,0.6,space,0.4813,space,0.5569,space,0.5435,n,0,2.0154,0,53,53,53,1,,
,,,,,,,,,,,,,,,,,,,,,,,,,,,,,6,6_1,neutral_gender_someone,2,9,masculine,Someone kissed me and he smiled before I blushed.,Did someone steal a pencil?,no,0,Someone,kissed,me,and,he,smiled,before,I,blushed.,ENGNATIVE_2023_04,001,2023-09-17_23h15.37.394,spr_english_2023_list2,2021.1.1,MacIntel,60.0024001,,,space,0.4163,space,0.3653,space,0.3482,space,0.4045,space,0.4005,space,0.4133,space,0.4355,space,0.4977,space,0.6293,n,0,1.5285,0,54,54,54,1,,
,,,,,,,,,,,,,,,,,,,,,,,,,,,,,18,18_2,inclusive_gender_reflexive,2,9,themself,Luke was reading by themself on the couch earlier.,Was Luke painting?,no,0,Luke,was,reading,by,themself,on,the,couch,earlier.,ENGNATIVE_2023_04,001,2023-09-17_23h15.37.394,spr_english_2023_list2,2021.1.1,MacIntel,60.0024001,,,space,0.4237,space,0.3319,space,0.4157,space,0.3849,space,0.3503,space,0.7498,space,0.452,space,0.3645,space,0.34,n,0,1.615,0,55,55,55,1,,
,,,,,,,,,,,,,,,,,,,,,,,,,,,,,60,NA,filler,1and2,9,NA,"Soft raindrops tapped gently, creating a rhythmic melody outside.",Was it a sunny day?,,0,Soft,raindrops,tapped,"gently,",creating,a,rhythmic,melody,outside.,ENGNATIVE_2023_04,001,2023-09-17_23h15.37.394,spr_english_2023_list2,2021.1.1,MacIntel,60.0024001,,,space,0.381,space,0.3596,space,0.3655,space,0.7315,space,0.4904,space,0.4485,space,0.4877,space,0.5504,space,0.504,n,0,1.4846,0,56,56,56,1,,
,,,,,,,,,,,,,,,,,,,,,,,,,,,,,47,47_2,inclusive_gender_they,2,9,they,Jane is happy because they won the game earlier.,Did Jane win something?,yes,1,Jane,is,happy,because,they,won,the,game,earlier.,ENGNATIVE_2023_04,001,2023-09-17_23h15.37.394,spr_english_2023_list2,2021.1.1,MacIntel,60.0024001,,,space,0.509,space,0.4284,space,0.3899,space,0.5471,space,0.4835,space,0.4528,space,0.4523,space,0.5243,space,0.498,y,0,1.8614,0,57,57,57,1,,
,,,,,,,,,,,,,,,,,,,,,,,,,,,,,12,12_1,neutral_gender_someone,2,9,masculine,Someone scared me and he ran after I screamed.,Did the person write a note?,no,0,Someone,scared,me,and,he,ran,after,I,screamed.,ENGNATIVE_2023_04,001,2023-09-17_23h15.37.394,spr_english_2023_list2,2021.1.1,MacIntel,60.0024001,,,space,0.7722,space,0.4973,space,0.438,space,0.3456,space,0.3797,space,0.3982,space,0.3861,space,0.4154,space,0.4963,n,0,1.539,0,58,58,58,1,,
,,,,,,,,,,,,,,,,,,,,,,,,,,,,,13,13_2,neutral_gender_someone,2,9,neutral,Someone filmed me but they stopped after I objected.,Did the person use a technological device?,yes,1,Someone,filmed,me,but,they,stopped,after,I,objected.,ENGNATIVE_2023_04,001,2023-09-17_23h15.37.394,spr_english_2023_list2,2021.1.1,MacIntel,60.0024001,,,space,0.4983,space,0.4144,space,0.6518,space,0.4358,space,0.4125,space,0.3904,space,0.4396,space,0.4519,space,0.6323,y,0,2.308,0,59,59,59,1,,
,,,,,,,,,,,,,,,,,,,,,,,,,,,,,,,,,,,,,,,,,,,,,,,,ENGNATIVE_2023_04,001,2023-09-17_23h15.37.394,spr_english_2023_list2,2021.1.1,MacIntel,60.0024001,,,,,,,,,,,,,,,,,,,,,,,,,,,,,y,2.8955
