key_resp.keys,key_resp.rt,key_resp_2.keys,key_resp_2.rt,key_resp_3.keys,key_resp_3.rt,key_resp_4.keys,key_resp_4.rt,key_resp_5.keys,key_resp_5.rt,key_resp_6.keys,key_resp_6.rt,key_resp_7.keys,key_resp_7.rt,key_resp_8.keys,key_resp_8.rt,key_resp_9.keys,key_resp_9.rt,key_resp_10.keys,key_resp_10.rt,key_resp_11.keys,key_resp_11.rt,key_resp_15.keys,key_resp_15.rt,trials_2.thisRepN,trials_2.thisTrialN,trials_2.thisN,trials_2.thisIndex,trials_2.ran,base_sentence_number,version,experiment,list,numb_words,gender,sentence,question,answer,CorrAns,w1,w2,w3,w4,w5,w6,w7,w8,w9,participant,session,date,expName,psychopyVersion,OS,frameRate,key_resp_16.keys,key_resp_16.rt,word1.keys,word1.rt,word2.keys,word2.rt,word3.keys,word3.rt,word4.keys,word4.rt,word5.keys,word5.rt,word6.keys,word6.rt,word7.keys,word7.rt,word8.keys,word8.rt,word9.keys,word9.rt,compquestion.keys,compquestion.corr,compquestion.rt,trials.thisRepN,trials.thisTrialN,trials.thisN,trials.thisIndex,trials.ran,endoftask.keys,endoftask.rt
space,12.0379,y,1.7162,space,1.3153,space,0.4951,space,0.651,space,0.7064,space,0.5073,space,0.4943,space,0.595,space,0.9242,space,0.5438,n,1.8574,0,0,0,0,1,NA,NA,practica,NA,NA,NA,Rita is uncomfortable because it is very hot outside.,Is it cold?,no,0,Rita,is,uncomfortable,because,it,is,very,hot,outside.,L2SPAN_2023_24,001,2023-09-12_19h51.07.858,spr_english_2023_list2,2021.1.1,MacIntel,60.0024001,,,,,,,,,,,,,,,,,,,,,,,,,,,,,,
,,,,space,0.7025,space,0.452,space,0.4738,space,0.4634,space,0.4601,space,0.5275,space,0.4616,space,0.8453,space,0.6082,n,2.3266,0,1,1,1,1,NA,NA,practica,NA,NA,NA,Peter was running by himself in the park yesterday.,Was Peter painting the wall?,no,0,Peter,was,running,by,himself,in,the,park,yesterday.,L2SPAN_2023_24,001,2023-09-12_19h51.07.858,spr_english_2023_list2,2021.1.1,MacIntel,60.0024001,,,,,,,,,,,,,,,,,,,,,,,,,,,,,,
,,,,space,0.7447,space,0.4423,space,0.4099,space,0.4996,space,0.4648,space,0.4438,space,0.4564,space,0.3638,space,0.7276,y,1.5923,0,2,2,2,1,NA,NA,practica,NA,NA,NA,Hannah is watching tv because she is really bored.,Is Hannah in front of a screen?,yes,1,Hannah,is,watching,tv,because,she,is,really,bored.,L2SPAN_2023_24,001,2023-09-12_19h51.07.858,spr_english_2023_list2,2021.1.1,MacIntel,60.0024001,,,,,,,,,,,,,,,,,,,,,,,,,,,,,,
,,,,,,,,,,,,,,,,,,,,,,,,,,,,,1,1_2,neutral_gender_someone,2,9,neutral,Someone called me but they stopped before I answered,Did the person try to communicate?,yes,1,Someone,called,me,but,they,stopped,before,I,answered.,L2SPAN_2023_24,001,2023-09-12_19h51.07.858,spr_english_2023_list2,2021.1.1,MacIntel,60.0024001,space,4.452,space,0.5038,space,0.5188,space,0.5605,space,0.5023,space,0.4902,space,0.4529,space,0.4814,space,0.5008,space,0.469,y,0,2.3448,0,0,0,0,1,,
,,,,,,,,,,,,,,,,,,,,,,,,,,,,,34,34_1,inclusive_gender_they,2,9,she,Mary is sad because she lost the dog earlier.,Did mary lose something?,no,0,Mary,is,sad,because,she,lost,the,dog,earlier.,L2SPAN_2023_24,001,2023-09-12_19h51.07.858,spr_english_2023_list2,2021.1.1,MacIntel,60.0024001,,,space,0.5226,space,0.4808,space,0.4508,space,0.4337,space,0.4278,space,0.3974,space,0.3972,space,0.4076,space,0.4035,y,0,1.7146,0,1,1,1,1,,
,,,,,,,,,,,,,,,,,,,,,,,,,,,,,31,31_1,inclusive_gender_reflexive,2,9,himself,Troy was singing by himself in the shower yesterday.,Was Troy singing?,yes,1,Troy,was,singing,by,himself,in,the,shower,yesterday.,L2SPAN_2023_24,001,2023-09-12_19h51.07.858,spr_english_2023_list2,2021.1.1,MacIntel,60.0024001,,,space,0.4566,space,0.3852,space,0.3807,space,0.4096,space,0.3963,space,0.4768,space,0.3672,space,0.3826,space,0.4358,y,0,1.309,0,2,2,2,1,,
,,,,,,,,,,,,,,,,,,,,,,,,,,,,,37,37_2,inclusive_gender_they,2,9,they,Emily is grateful because they got nice gifts yesterday.,Did Emily get presents?,yes,1,Emily,is,grateful,because,they,got,nice,gifts,yesterday.,L2SPAN_2023_24,001,2023-09-12_19h51.07.858,spr_english_2023_list2,2021.1.1,MacIntel,60.0024001,,,space,0.3642,space,0.3837,space,0.3951,space,0.4196,space,0.406,space,0.4764,space,0.4983,space,0.5717,space,0.564,y,0,1.3314,0,3,3,3,1,,
,,,,,,,,,,,,,,,,,,,,,,,,,,,,,55,NA,filler,1and2,9,NA,The aroma of freshly brewed coffee filled the room.,Was the smell nice?,,1,The,aroma,of,freshly,brewed,coffee,filled,the,room.,L2SPAN_2023_24,001,2023-09-12_19h51.07.858,spr_english_2023_list2,2021.1.1,MacIntel,60.0024001,,,space,0.4421,space,0.3634,space,0.4638,space,0.3952,space,0.4624,space,0.4487,space,0.3954,space,0.4111,space,0.4447,y,0,1.574,0,4,4,4,1,,
,,,,,,,,,,,,,,,,,,,,,,,,,,,,,30,30_2,inclusive_gender_reflexive,2,9,themself,Scott was drinking by themself at the bar earlier.,Was Scott at his apartment?,no,0,Scott,was,drinking,by,themself,at,the,bar,earlier.,L2SPAN_2023_24,001,2023-09-12_19h51.07.858,spr_english_2023_list2,2021.1.1,MacIntel,60.0024001,,,space,0.6711,space,0.5777,space,0.5075,space,0.4966,space,0.4251,space,0.6496,space,0.4982,space,0.4621,space,0.4898,n,0,2.2572,0,5,5,5,1,,
,,,,,,,,,,,,,,,,,,,,,,,,,,,,,14,14_1,neutral_gender_someone,2,9,masculine,Someone photographed me but he quit before I spoke.,Did someone take pictures?,yes,0,Someone,photographed,me,but,he,quit,before,I,spoke.,L2SPAN_2023_24,001,2023-09-12_19h51.07.858,spr_english_2023_list2,2021.1.1,MacIntel,60.0024001,,,space,0.5594,space,0.7993,space,0.529,space,0.4471,space,0.4481,space,0.4543,space,0.4288,space,0.4582,space,0.455,y,0,1.624,0,6,6,6,1,,
,,,,,,,,,,,,,,,,,,,,,,,,,,,,,28,28_2,inclusive_gender_reflexive,2,9,themself,Tom was swimming by themself at the beach earlier.,Was Tom at the park?,no,0,Tom,was,swimming,by,themself,at,the,beach,earlier.,L2SPAN_2023_24,001,2023-09-12_19h51.07.858,spr_english_2023_list2,2021.1.1,MacIntel,60.0024001,,,space,0.4359,space,0.3436,space,0.4098,space,0.4166,space,0.4118,space,0.5254,space,0.4441,space,0.4945,space,0.7991,n,0,4.162,0,7,7,7,1,,
,,,,,,,,,,,,,,,,,,,,,,,,,,,,,49,NA,filler,1and2,9,NA,"The sun behind distant mountains, painting the nice sky.",Was the sun showing?,,1,The,sun,behind,distant,"mountains,",painting,the,nice,sky.,L2SPAN_2023_24,001,2023-09-12_19h51.07.858,spr_english_2023_list2,2021.1.1,MacIntel,60.0024001,,,space,0.4073,space,0.4534,space,0.4251,space,0.4575,space,0.5484,space,0.5136,space,0.5052,space,0.6954,space,0.5472,y,0,1.7107,0,8,8,8,1,,
,,,,,,,,,,,,,,,,,,,,,,,,,,,,,38,38_1,inclusive_gender_they,2,9,she,Ruth is angry because she lost the job yesterday.,Is Ruth peaceful?,no,0,Ruth,is,angry,because,she,lost,the,job,yesterday.,L2SPAN_2023_24,001,2023-09-12_19h51.07.858,spr_english_2023_list2,2021.1.1,MacIntel,60.0024001,,,space,0.5373,space,0.3961,space,0.3923,space,0.4323,space,0.4441,space,0.45,space,0.4393,space,0.4691,space,0.6422,n,0,1.5114,0,9,9,9,1,,
,,,,,,,,,,,,,,,,,,,,,,,,,,,,,19,19_1,inclusive_gender_reflexive,2,9,himself,James was studying by himself in the library yesterday.,Was James at the library?,yes,1,James,was,studying,by,himself,in,the,library,yesterday.,L2SPAN_2023_24,001,2023-09-12_19h51.07.858,spr_english_2023_list2,2021.1.1,MacIntel,60.0024001,,,space,0.5238,space,0.3145,space,0.4122,space,0.4098,space,0.4277,space,0.4445,space,0.4387,space,0.5116,space,0.5168,y,0,1.1908,0,10,10,10,1,,
,,,,,,,,,,,,,,,,,,,,,,,,,,,,,8,8_1,neutral_gender_someone,2,9,masculine,Someone serenaded me and he stopped before I applauded.,Did the person dance?,no,0,Someone,serenaded,me,and,he,stopped,before,I,applauded.,L2SPAN_2023_24,001,2023-09-12_19h51.07.858,spr_english_2023_list2,2021.1.1,MacIntel,60.0024001,,,space,0.4381,space,0.3275,space,0.5671,space,0.4647,space,0.4543,space,0.4242,space,0.3986,space,0.4441,space,0.611,n,0,1.6427,0,11,11,11,1,,
,,,,,,,,,,,,,,,,,,,,,,,,,,,,,32,32_2,inclusive_gender_reflexive,2,9,themself,Hugh was stretching by themself in the garden earlier.,Was Hugh in the attic?,no,0,Hugh,was,stretching,by,themself,in,the,garden,earlier.,L2SPAN_2023_24,001,2023-09-12_19h51.07.858,spr_english_2023_list2,2021.1.1,MacIntel,60.0024001,,,space,0.4393,space,0.5933,space,0.4097,space,0.4417,space,0.3986,space,0.4633,space,0.429,space,0.4755,space,0.4651,n,0,1.4297,0,12,12,12,1,,
,,,,,,,,,,,,,,,,,,,,,,,,,,,,,58,NA,filler,1and2,9,NA,"Scent of flowers wafted, enchanting with its delicate fragrance.",Did the flowers smell bad?,,0,Scent,of,flowers,"wafted,",enchanting,with,its,delicate,fragrance.,L2SPAN_2023_24,001,2023-09-12_19h51.07.858,spr_english_2023_list2,2021.1.1,MacIntel,60.0024001,,,space,0.4805,space,0.4287,space,0.4125,space,0.4619,space,0.4741,space,0.4232,space,0.4564,space,0.4206,space,0.4674,n,0,1.6752,0,13,13,13,1,,
,,,,,,,,,,,,,,,,,,,,,,,,,,,,,17,17_1,inclusive_gender_reflexive,2,9,himself,John was sitting by himself on the bench yesterday.,Was John on a bench?,yes,1,John,was,sitting,by,himself,on,the,bench,yesterday.,L2SPAN_2023_24,001,2023-09-12_19h51.07.858,spr_english_2023_list2,2021.1.1,MacIntel,60.0024001,,,space,0.4478,space,0.4301,space,0.4317,space,0.4435,space,0.4156,space,0.4253,space,0.4103,space,0.442,space,0.4727,y,0,1.4219,0,14,14,14,1,,
,,,,,,,,,,,,,,,,,,,,,,,,,,,,,5,5_2,neutral_gender_someone,2,9,neutral,Someone robbed me but they fled before I screamed.,Did a theft occur?,yes,1,Someone,robbed,me,but,they,fled,before,I,screamed.,L2SPAN_2023_24,001,2023-09-12_19h51.07.858,spr_english_2023_list2,2021.1.1,MacIntel,60.0024001,,,space,0.4238,space,0.4253,space,0.4381,space,0.3964,space,0.4148,space,0.4171,space,0.4443,space,0.4153,space,0.5438,y,0,2.1419,0,15,15,15,1,,
,,,,,,,,,,,,,,,,,,,,,,,,,,,,,7,7_2,neutral_gender_someone,2,9,neutral,Someone threatened me but they ran before I reacted.,Was there a threat?,yes,1,Someone,threatened,me,but,they,ran,before,I,reacted.,L2SPAN_2023_24,001,2023-09-12_19h51.07.858,spr_english_2023_list2,2021.1.1,MacIntel,60.0024001,,,space,0.4648,space,0.528,space,0.5206,space,0.5609,space,0.4344,space,0.4219,space,0.489,space,0.4507,space,0.4848,y,0,4.3608,0,16,16,16,1,,
,,,,,,,,,,,,,,,,,,,,,,,,,,,,,26,26_2,inclusive_gender_reflexive,2,9,themself,Mark was walking by themself in the park earlier.,Was Mark in the living room?,no,0,Mark,was,walking,by,themself,in,the,park,earlier.,L2SPAN_2023_24,001,2023-09-12_19h51.07.858,spr_english_2023_list2,2021.1.1,MacIntel,60.0024001,,,space,0.4601,space,0.4137,space,0.4087,space,0.4254,space,0.4079,space,0.4251,space,0.4068,space,0.4562,space,0.4536,n,0,1.5468,0,17,17,17,1,,
,,,,,,,,,,,,,,,,,,,,,,,,,,,,,44,44_1,inclusive_gender_they,2,9,she,Alice is hopeful because she had good luck yesterday.,Is Alice sad?,no,0,Alice,is,hopeful,because,she,had,good,luck,yesterday.,L2SPAN_2023_24,001,2023-09-12_19h51.07.858,spr_english_2023_list2,2021.1.1,MacIntel,60.0024001,,,space,0.4322,space,0.3926,space,0.3775,space,0.4273,space,0.3766,space,0.4118,space,0.4182,space,0.4116,space,0.3924,n,0,2.3772,0,18,18,18,1,,
,,,,,,,,,,,,,,,,,,,,,,,,,,,,,52,NA,filler,1and2,9,NA,"I awaited eagerly, anticipating the arrival of the morning.",Was the person waiting for something?,,1,I,awaited,"eagerly,",anticipating,the,arrival,of,the,morning.,L2SPAN_2023_24,001,2023-09-12_19h51.07.858,spr_english_2023_list2,2021.1.1,MacIntel,60.0024001,,,space,0.4963,space,0.6139,space,0.4232,space,0.4747,space,0.432,space,0.4462,space,0.4254,space,0.4269,space,0.4621,y,0,2.0563,0,19,19,19,1,,
,,,,,,,,,,,,,,,,,,,,,,,,,,,,,27,27_1,inclusive_gender_reflexive,2,9,himself,Paul was drawing by himself in the attic yesterday.,Was Paul drawing?,yes,1,Paul,was,drawing,by,himself,in,the,attic,yesterday.,L2SPAN_2023_24,001,2023-09-12_19h51.07.858,spr_english_2023_list2,2021.1.1,MacIntel,60.0024001,,,space,0.4446,space,0.4289,space,0.4267,space,0.4005,space,0.4311,space,0.3774,space,0.3829,space,0.3942,space,0.4873,y,0,1.125,0,20,20,20,1,,
,,,,,,,,,,,,,,,,,,,,,,,,,,,,,16,16_1,neutral_gender_someone,2,9,masculine,Someone passed me and he sped before I noticed.,Was everybody going slow?,no,0,Someone,passed,me,and,he,sped,before,I,noticed.,L2SPAN_2023_24,001,2023-09-12_19h51.07.858,spr_english_2023_list2,2021.1.1,MacIntel,60.0024001,,,space,0.3648,space,0.368,space,0.3437,space,0.3614,space,0.3968,space,0.3921,space,0.4042,space,0.3374,space,0.551,n,0,3.1131,0,21,21,21,1,,
,,,,,,,,,,,,,,,,,,,,,,,,,,,,,53,NA,filler,1and2,9,NA,"Waves crashed against the shore, creating a soothing rhythm.",Was the rhythm violent?,,0,Waves,crashed,against,the,"shore,",creating,a,soothing,rhythm.,L2SPAN_2023_24,001,2023-09-12_19h51.07.858,spr_english_2023_list2,2021.1.1,MacIntel,60.0024001,,,space,11.223,space,0.4261,space,0.4114,space,0.3728,space,0.4488,space,0.5121,space,0.4111,space,0.5661,space,0.7107,n,0,1.5386,0,22,22,22,1,,
,,,,,,,,,,,,,,,,,,,,,,,,,,,,,42,42_1,inclusive_gender_they,2,9,she,Nancy is upset because she fell on stage yesterday.,Is Nancy calm?,no,0,Nancy,is,upset,because,she,fell,on,stage,yesterday.,L2SPAN_2023_24,001,2023-09-12_19h51.07.858,spr_english_2023_list2,2021.1.1,MacIntel,60.0024001,,,space,0.527,space,0.4795,space,0.525,space,0.3939,space,0.3599,space,0.361,space,0.425,space,0.3609,space,0.4793,n,0,1.1874,0,23,23,23,1,,
,,,,,,,,,,,,,,,,,,,,,,,,,,,,,4,4_1,neutral_gender_someone,2,9,masculine,Someone punched me but he ran before I noticed.,Was everybody involved peaceful?,no,0,Someone,punched,me,but,he,ran,before,I,noticed.,L2SPAN_2023_24,001,2023-09-12_19h51.07.858,spr_english_2023_list2,2021.1.1,MacIntel,60.0024001,,,space,0.4579,space,0.4075,space,0.3697,space,0.3584,space,0.3592,space,0.4109,space,0.3562,space,0.4692,space,0.4987,n,0,2.0616,0,24,24,24,1,,
,,,,,,,,,,,,,,,,,,,,,,,,,,,,,40,40_1,inclusive_gender_they,2,9,she,Clara is relieved because she got a promotion yesterday.,Does Clara feel bad?,no,0,Clara,is,relieved,because,she,got,a,promotion,yesterday.,L2SPAN_2023_24,001,2023-09-12_19h51.07.858,spr_english_2023_list2,2021.1.1,MacIntel,60.0024001,,,space,0.3747,space,0.3185,space,0.3772,space,0.3454,space,0.3474,space,0.3979,space,0.3791,space,0.3837,space,0.4147,n,0,1.1206,0,25,25,25,1,,
,,,,,,,,,,,,,,,,,,,,,,,,,,,,,23,23_1,inclusive_gender_reflexive,2,9,himself,Ben was dancing by himself in the kitchen yesterday.,Was Ben in the kitchen?,yes,1,Ben,was,dancing,by,himself,in,the,kitchen,yesterday.,L2SPAN_2023_24,001,2023-09-12_19h51.07.858,spr_english_2023_list2,2021.1.1,MacIntel,60.0024001,,,space,0.3356,space,0.3143,space,0.317,space,0.3438,space,0.3229,space,0.3643,space,0.3535,space,0.4086,space,0.4043,y,0,1.5906,0,26,26,26,1,,
,,,,,,,,,,,,,,,,,,,,,,,,,,,,,15,15_2,neutral_gender_someone,2,9,neutral,Someone pranked me but they ran before I reacted.,Was a joke mentioned?,yes,1,Someone,pranked,me,but,they,ran,before,I,reacted.,L2SPAN_2023_24,001,2023-09-12_19h51.07.858,spr_english_2023_list2,2021.1.1,MacIntel,60.0024001,,,space,0.4134,space,0.2779,space,0.3791,space,0.3602,space,0.3428,space,0.3637,space,0.427,space,0.3637,space,0.4328,y,0,2.0478,0,27,27,27,1,,
,,,,,,,,,,,,,,,,,,,,,,,,,,,,,3,3_2,neutral_gender_someone,2,9,neutral,Someone hit me but they ran before I reacted,Was there physical violence?,yes,1,Someone,hit,me,but,they,ran,before,I,reacted.,L2SPAN_2023_24,001,2023-09-12_19h51.07.858,spr_english_2023_list2,2021.1.1,MacIntel,60.0024001,,,space,0.3996,space,0.3079,space,0.3689,space,0.3643,space,0.3337,space,0.3696,space,0.3677,space,0.3695,space,0.4342,y,0,1.4559,0,28,28,28,1,,
,,,,,,,,,,,,,,,,,,,,,,,,,,,,,50,NA,filler,1and2,9,NA,"He smiled warmly, extending a hand in friendly greeting.",Did someone fall?,,0,He,smiled,"warmly,",extending,a,hand,in,friendly,greeting.,L2SPAN_2023_24,001,2023-09-12_19h51.07.858,spr_english_2023_list2,2021.1.1,MacIntel,60.0024001,,,space,0.3474,space,0.2937,space,0.3094,space,0.3908,space,1.8165,space,0.0027,space,0.4453,space,1.0889,space,0.8323,n,0,1.7623,0,29,29,29,1,,
,,,,,,,,,,,,,,,,,,,,,,,,,,,,,41,41_2,inclusive_gender_they,2,9,they,Laura is happy because they passed the exam earlier.,Is Laura in a good mood?,yes,1,Laura,is,happy,because,they,passed,the,exam,earlier.,L2SPAN_2023_24,001,2023-09-12_19h51.07.858,spr_english_2023_list2,2021.1.1,MacIntel,60.0024001,,,space,0.3382,space,0.3905,space,0.4156,space,0.4047,space,0.3964,space,0.4266,space,0.4551,space,0.5544,space,0.6114,y,0,1.5204,0,30,30,30,1,,
,,,,,,,,,,,,,,,,,,,,,,,,,,,,,54,NA,filler,1and2,9,NA,"She danced a lot, her movements resembling pure poetry.",Was it an unpleasant dance?,,0,She,danced,a,"lot,",her,movements,resembling,pure,poetry.,L2SPAN_2023_24,001,2023-09-12_19h51.07.858,spr_english_2023_list2,2021.1.1,MacIntel,60.0024001,,,space,0.3382,space,0.4473,space,0.5591,space,0.4831,space,0.4672,space,0.4146,space,0.4149,space,0.473,space,0.5126,n,0,1.7666,0,31,31,31,1,,
,,,,,,,,,,,,,,,,,,,,,,,,,,,,,24,24_2,inclusive_gender_reflexive,2,9,themself,Jake was strolling by themself at the park earlier.,Was Jake swimming?,no,0,Jake,was,strolling,by,themself,at,the,park,earlier.,L2SPAN_2023_24,001,2023-09-12_19h51.07.858,spr_english_2023_list2,2021.1.1,MacIntel,60.0024001,,,space,0.3918,space,0.3457,space,0.3435,space,0.3664,space,0.3978,space,0.4306,space,0.4068,space,0.3816,space,0.4608,n,0,1.4006,0,32,32,32,1,,
,,,,,,,,,,,,,,,,,,,,,,,,,,,,,46,46_1,inclusive_gender_they,2,9,she,Kate is tipsy because she had two drinks earlier.,Is Kate sober?,no,0,Kate,is,tipsy,because,she,had,two,drinks,earlier.,L2SPAN_2023_24,001,2023-09-12_19h51.07.858,spr_english_2023_list2,2021.1.1,MacIntel,60.0024001,,,space,0.388,space,0.312,space,0.3279,space,0.356,space,0.3415,space,0.3393,space,0.3442,space,0.3833,space,0.484,n,0,1.9396,0,33,33,33,1,,
,,,,,,,,,,,,,,,,,,,,,,,,,,,,,25,25_1,inclusive_gender_reflexive,2,9,himself,Blake was fishing by himself at the riverbank yesterday.,Was Blake fishing?,yes,1,Blake,was,fishing,by,himself,at,the,riverbank,yesterday.,L2SPAN_2023_24,001,2023-09-12_19h51.07.858,spr_english_2023_list2,2021.1.1,MacIntel,60.0024001,,,space,0.3805,space,0.4159,space,0.4991,space,0.5258,space,0.3594,space,0.4323,space,0.3938,space,0.407,space,0.4153,y,0,0.9453,0,34,34,34,1,,
,,,,,,,,,,,,,,,,,,,,,,,,,,,,,43,43_2,inclusive_gender_they,2,9,they,Rose is content because they won an award earlier.,Is Rose happy?,yes,1,Rose,is,content,because,they,won,an,award,earlier.,L2SPAN_2023_24,001,2023-09-12_19h51.07.858,spr_english_2023_list2,2021.1.1,MacIntel,60.0024001,,,space,0.3726,space,0.3514,space,0.3122,space,0.3654,space,0.3772,space,0.4111,space,0.3955,space,0.4609,space,0.4771,y,0,1.0804,0,35,35,35,1,,
,,,,,,,,,,,,,,,,,,,,,,,,,,,,,51,NA,filler,1and2,9,NA,"The old oak tree stood tall, casting shade below.",Was a big plant mentioned? ,,1,The,old,oak,tree,stood,"tall,",casting,shade,below.,L2SPAN_2023_24,001,2023-09-12_19h51.07.858,spr_english_2023_list2,2021.1.1,MacIntel,60.0024001,,,space,0.3424,space,0.3176,space,0.363,space,0.3774,space,0.3495,space,0.3815,space,0.3806,space,0.7523,space,0.4959,y,0,1.682,0,36,36,36,1,,
,,,,,,,,,,,,,,,,,,,,,,,,,,,,,22,22_2,inclusive_gender_reflexive,2,9,themself,Max was painting by themself in the studio earlier.,Was Max watching tv?,no,0,Max,was,painting,by,themself,in,the,studio,earlier.,L2SPAN_2023_24,001,2023-09-12_19h51.07.858,spr_english_2023_list2,2021.1.1,MacIntel,60.0024001,,,space,0.3938,space,0.3788,space,0.3551,space,0.347,space,0.3643,space,0.3598,space,0.3114,space,0.3604,space,0.3608,n,0,0.921,0,37,37,37,1,,
,,,,,,,,,,,,,,,,,,,,,,,,,,,,,33,33_2,inclusive_gender_they,2,9,they,Sara is happy because they found new friends yesterday.,Is Sara in a good mood?,yes,1,Sara,is,happy,because,they,found,new,friends,yesterday.,L2SPAN_2023_24,001,2023-09-12_19h51.07.858,spr_english_2023_list2,2021.1.1,MacIntel,60.0024001,,,space,0.3116,space,0.2797,space,0.2767,space,0.2904,space,0.3115,space,0.2939,space,0.2931,space,0.3425,space,0.3894,y,0,1.0467,0,38,38,38,1,,
,,,,,,,,,,,,,,,,,,,,,,,,,,,,,9,9_2,neutral_gender_someone,2,9,neutral,Someone helped me but they left before I finished.,Did the person offer some help?,yes,1,Someone,helped,me,but,they,left,before,I,finished.,L2SPAN_2023_24,001,2023-09-12_19h51.07.858,spr_english_2023_list2,2021.1.1,MacIntel,60.0024001,,,space,0.3179,space,0.2783,space,0.3013,space,0.3422,space,0.3339,space,0.2788,space,0.3075,space,0.3658,space,0.2907,y,0,1.396,0,39,39,39,1,,
,,,,,,,,,,,,,,,,,,,,,,,,,,,,,10,10_1,neutral_gender_someone,2,9,masculine,Someone shushed me but he stopped before I noticed.,Was the person happy to hear a voice?,no,0,Someone,shushed,me,but,he,stopped,before,I,noticed.,L2SPAN_2023_24,001,2023-09-12_19h51.07.858,spr_english_2023_list2,2021.1.1,MacIntel,60.0024001,,,space,0.6663,space,0.5423,space,0.4837,space,0.3499,space,0.3129,space,0.3288,space,0.3039,space,0.3161,space,0.4263,n,0,2.1396,0,40,40,40,1,,
,,,,,,,,,,,,,,,,,,,,,,,,,,,,,11,11_2,neutral_gender_someone,2,9,neutral,Someone pushed me but they tripped after I fell.,Was there any sort of physical violence?,yes,1,Someone,pushed,me,but,they,tripped,after,I,fell.,L2SPAN_2023_24,001,2023-09-12_19h51.07.858,spr_english_2023_list2,2021.1.1,MacIntel,60.0024001,,,space,0.3497,space,0.7598,space,0.4333,space,0.3481,space,0.5589,space,0.3431,space,0.3621,space,0.3833,space,0.3646,y,0,2.5933,0,41,41,41,1,,
,,,,,,,,,,,,,,,,,,,,,,,,,,,,,39,39_2,inclusive_gender_they,2,9,they,Judy is confused because they lost the map ealier.,Did Judy lose something?,yes,1,Judy,is,confused,because,they,lost,the,map,ealier.,L2SPAN_2023_24,001,2023-09-12_19h51.07.858,spr_english_2023_list2,2021.1.1,MacIntel,60.0024001,,,space,0.3119,space,0.3286,space,0.3043,space,0.3659,space,0.3551,space,0.3288,space,0.3478,space,0.3632,space,0.3342,y,0,1.1646,0,42,42,42,1,,
,,,,,,,,,,,,,,,,,,,,,,,,,,,,,57,NA,filler,1and2,9,NA,"The child's laughter echoed, bringing joy to the playground.",Was the child happy?,,1,The,child's,laughter,"echoed,",bringing,joy,to,the,playground.,L2SPAN_2023_24,001,2023-09-12_19h51.07.858,spr_english_2023_list2,2021.1.1,MacIntel,60.0024001,,,space,0.3173,space,0.2798,space,0.3987,space,0.3792,space,0.3786,space,0.3995,space,0.4101,space,0.4451,space,0.4274,y,0,1.244,0,43,43,43,1,,
,,,,,,,,,,,,,,,,,,,,,,,,,,,,,21,21_1,inclusive_gender_reflexive,2,9,himself,Jack was cooking by himself in the kitchen yesterday.,Was Jack in the kitchen?,yes,1,Jack,was,cooking,by,himself,in,the,kitchen,yesterday.,L2SPAN_2023_24,001,2023-09-12_19h51.07.858,spr_english_2023_list2,2021.1.1,MacIntel,60.0024001,,,space,0.3086,space,0.5604,space,0.4104,space,0.5764,space,0.3773,space,0.4284,space,0.365,space,0.5265,space,0.4094,y,0,1.1133,0,44,44,44,1,,
,,,,,,,,,,,,,,,,,,,,,,,,,,,,,35,35_2,inclusive_gender_they,2,9,they,Susan is joyful because they won the lottery yesterday.,Is Susan in a good mood?,yes,1,Susan,is,joyful,because,they,won,the,lottery,yesterday.,L2SPAN_2023_24,001,2023-09-12_19h51.07.858,spr_english_2023_list2,2021.1.1,MacIntel,60.0024001,,,space,0.3163,space,0.383,space,0.345,space,0.3634,space,0.3307,space,0.3518,space,0.3358,space,0.3253,space,0.339,y,0,1.0282,0,45,45,45,1,,
,,,,,,,,,,,,,,,,,,,,,,,,,,,,,36,36_1,inclusive_gender_they,2,9,she,Helen is anxious because she dread the presentation earlier.,Did Helen's presentation go well?,no,0,Helen,is,anxious,because,she,dread,the,presentation,earlier.,L2SPAN_2023_24,001,2023-09-12_19h51.07.858,spr_english_2023_list2,2021.1.1,MacIntel,60.0024001,,,space,0.2495,space,0.2715,space,0.2946,space,0.3818,space,0.376,space,0.362,space,0.3509,space,0.3941,space,0.445,n,0,4.1422,0,46,46,46,1,,
,,,,,,,,,,,,,,,,,,,,,,,,,,,,,56,NA,filler,1and2,9,NA,"They went on an exciting trip, embracing their destiny.",Did they stay home?,,0,They,went,on,an,exciting,"trip,",embracing,their,destiny.,L2SPAN_2023_24,001,2023-09-12_19h51.07.858,spr_english_2023_list2,2021.1.1,MacIntel,60.0024001,,,space,0.3597,space,0.3136,space,0.3277,space,0.3482,space,0.3773,space,0.437,space,0.4281,space,0.4341,space,0.4456,n,0,1.7784,0,47,47,47,1,,
,,,,,,,,,,,,,,,,,,,,,,,,,,,,,2,2_1,neutral_gender_someone,2,9,masculine,Someone warned me and he helped before I fell.,Did everybody maintain stability?,no,0,Someone,warned,me,and,he,helped,before,I,fell.,L2SPAN_2023_24,001,2023-09-12_19h51.07.858,spr_english_2023_list2,2021.1.1,MacIntel,60.0024001,,,space,0.3431,space,0.3088,space,0.2946,space,0.3602,space,0.3629,space,0.379,space,0.3686,space,0.378,space,0.4126,n,0,3.2095,0,48,48,48,1,,
,,,,,,,,,,,,,,,,,,,,,,,,,,,,,45,45_2,inclusive_gender_they,2,9,they,Patricia is upset because they missed the bus earlier.,Is Patricia in a bad mood?,yes,1,Patricia,is,upset,because,they,missed,the,bus,earlier.,L2SPAN_2023_24,001,2023-09-12_19h51.07.858,spr_english_2023_list2,2021.1.1,MacIntel,60.0024001,,,space,0.3077,space,0.3279,space,0.3114,space,0.4489,space,0.4475,space,0.395,space,0.3602,space,0.4308,space,0.4821,y,0,2.3791,0,49,49,49,1,,
,,,,,,,,,,,,,,,,,,,,,,,,,,,,,29,29_1,inclusive_gender_reflexive,2,9,himself,Kyle was cycling by himself on the trail yesterday.,Was Kyle on the trail?,yes,1,Kyle,was,cycling,by,himself,on,the,trail,yesterday.,L2SPAN_2023_24,001,2023-09-12_19h51.07.858,spr_english_2023_list2,2021.1.1,MacIntel,60.0024001,,,space,0.3461,space,0.3611,space,0.3436,space,0.3614,space,0.3296,space,0.3669,space,0.3515,space,0.3444,space,0.3622,y,0,1.1394,0,50,50,50,1,,
,,,,,,,,,,,,,,,,,,,,,,,,,,,,,59,NA,filler,1and2,9,NA,"Colorful balloons floated away, disappearing into the infinite sky.",Did the balloons have many colors?,,1,Colorful,balloons,floated,"away,",disappearing,into,the,infinite,sky.,L2SPAN_2023_24,001,2023-09-12_19h51.07.858,spr_english_2023_list2,2021.1.1,MacIntel,60.0024001,,,space,0.3089,space,0.3175,space,0.3303,space,0.3123,space,0.3284,space,0.3766,space,0.4071,space,0.4951,space,0.4609,y,0,2.7108,0,51,51,51,1,,
,,,,,,,,,,,,,,,,,,,,,,,,,,,,,20,20_2,inclusive_gender_reflexive,2,9,themself,Mike was jogging by themself in the park earlier.,Was Mike sleeping?,no,0,Mike,was,jogging,by,themself,in,the,park,earlier.,L2SPAN_2023_24,001,2023-09-12_19h51.07.858,spr_english_2023_list2,2021.1.1,MacIntel,60.0024001,,,space,0.3609,space,0.3963,space,0.3981,space,0.3594,space,0.3627,space,0.4113,space,0.3858,space,0.3778,space,0.3787,n,0,1.0833,0,52,52,52,1,,
,,,,,,,,,,,,,,,,,,,,,,,,,,,,,48,48_1,inclusive_gender_they,2,9,she,Martha is tired because she read two novels earlier.,Does Martha have a lot of energy?,no,0,Martha,is,tired,because,she,read,two,novels,earlier.,L2SPAN_2023_24,001,2023-09-12_19h51.07.858,spr_english_2023_list2,2021.1.1,MacIntel,60.0024001,,,space,0.3288,space,0.3114,space,0.3439,space,0.3134,space,0.327,space,0.3106,space,0.298,space,0.3346,space,0.3915,n,0,2.0932,0,53,53,53,1,,
,,,,,,,,,,,,,,,,,,,,,,,,,,,,,6,6_1,neutral_gender_someone,2,9,masculine,Someone kissed me and he smiled before I blushed.,Did someone steal a pencil?,no,0,Someone,kissed,me,and,he,smiled,before,I,blushed.,L2SPAN_2023_24,001,2023-09-12_19h51.07.858,spr_english_2023_list2,2021.1.1,MacIntel,60.0024001,,,space,0.3305,space,0.2883,space,0.3518,space,0.3527,space,0.3831,space,0.398,space,0.4272,space,0.3023,space,0.3959,n,0,1.4787,0,54,54,54,1,,
,,,,,,,,,,,,,,,,,,,,,,,,,,,,,18,18_2,inclusive_gender_reflexive,2,9,themself,Luke was reading by themself on the couch earlier.,Was Luke painting?,no,0,Luke,was,reading,by,themself,on,the,couch,earlier.,L2SPAN_2023_24,001,2023-09-12_19h51.07.858,spr_english_2023_list2,2021.1.1,MacIntel,60.0024001,,,space,0.3286,space,0.3453,space,0.3627,space,0.3942,space,0.3768,space,0.3964,space,0.3763,space,0.3815,space,0.3954,n,0,1.0604,0,55,55,55,1,,
,,,,,,,,,,,,,,,,,,,,,,,,,,,,,60,NA,filler,1and2,9,NA,"Soft raindrops tapped gently, creating a rhythmic melody outside.",Was it a sunny day?,,0,Soft,raindrops,tapped,"gently,",creating,a,rhythmic,melody,outside.,L2SPAN_2023_24,001,2023-09-12_19h51.07.858,spr_english_2023_list2,2021.1.1,MacIntel,60.0024001,,,space,0.3171,space,0.3788,space,0.3301,space,0.3596,space,0.3436,space,0.3672,space,0.3766,space,0.3767,space,0.3605,n,0,0.9952,0,56,56,56,1,,
,,,,,,,,,,,,,,,,,,,,,,,,,,,,,47,47_2,inclusive_gender_they,2,9,they,Jane is happy because they won the game earlier.,Did Jane win something?,yes,1,Jane,is,happy,because,they,won,the,game,earlier.,L2SPAN_2023_24,001,2023-09-12_19h51.07.858,spr_english_2023_list2,2021.1.1,MacIntel,60.0024001,,,space,0.3425,space,0.315,space,0.3467,space,0.3274,space,0.3106,space,0.3258,space,0.3111,space,0.3487,space,0.4444,y,0,1.342,0,57,57,57,1,,
,,,,,,,,,,,,,,,,,,,,,,,,,,,,,12,12_1,neutral_gender_someone,2,9,masculine,Someone scared me and he ran after I screamed.,Did the person write a note?,no,0,Someone,scared,me,and,he,ran,after,I,screamed.,L2SPAN_2023_24,001,2023-09-12_19h51.07.858,spr_english_2023_list2,2021.1.1,MacIntel,60.0024001,,,space,0.3764,space,0.3615,space,0.3784,space,0.3622,space,0.3931,space,0.3445,space,0.3446,space,0.3969,space,0.4939,n,0,3.3296,0,58,58,58,1,,
,,,,,,,,,,,,,,,,,,,,,,,,,,,,,13,13_2,neutral_gender_someone,2,9,neutral,Someone filmed me but they stopped after I objected.,Did the person use a technological device?,yes,1,Someone,filmed,me,but,they,stopped,after,I,objected.,L2SPAN_2023_24,001,2023-09-12_19h51.07.858,spr_english_2023_list2,2021.1.1,MacIntel,60.0024001,,,space,0.335,space,0.3345,space,0.386,space,0.3636,space,0.3597,space,0.3436,space,0.3353,space,0.3712,space,0.3754,y,0,2.1498,0,59,59,59,1,,
,,,,,,,,,,,,,,,,,,,,,,,,,,,,,,,,,,,,,,,,,,,,,,,,L2SPAN_2023_24,001,2023-09-12_19h51.07.858,spr_english_2023_list2,2021.1.1,MacIntel,60.0024001,,,,,,,,,,,,,,,,,,,,,,,,,,,,,y,2.921
