key_resp.keys,key_resp.rt,key_resp_2.keys,key_resp_2.rt,key_resp_3.keys,key_resp_3.rt,key_resp_4.keys,key_resp_4.rt,key_resp_5.keys,key_resp_5.rt,key_resp_6.keys,key_resp_6.rt,key_resp_7.keys,key_resp_7.rt,key_resp_8.keys,key_resp_8.rt,key_resp_9.keys,key_resp_9.rt,key_resp_10.keys,key_resp_10.rt,key_resp_11.keys,key_resp_11.rt,key_resp_15.keys,key_resp_15.rt,trials_2.thisRepN,trials_2.thisTrialN,trials_2.thisN,trials_2.thisIndex,trials_2.ran,base_sentence_number,version,experiment,list,numb_words,gender,sentence,question,answer,CorrAns,w1,w2,w3,w4,w5,w6,w7,w8,w9,participant,session,date,expName,psychopyVersion,OS,frameRate,key_resp_16.keys,key_resp_16.rt,word1.keys,word1.rt,word2.keys,word2.rt,word3.keys,word3.rt,word4.keys,word4.rt,word5.keys,word5.rt,word6.keys,word6.rt,word7.keys,word7.rt,word8.keys,word8.rt,word9.keys,word9.rt,compquestion.keys,compquestion.corr,compquestion.rt,trials.thisRepN,trials.thisTrialN,trials.thisN,trials.thisIndex,trials.ran,endoftask.keys,endoftask.rt
space,9.889,y,0.9807,space,0.9451,space,0.5196,space,0.5254,space,0.5382,space,0.5304,space,0.4696,space,0.5307,space,0.478,space,0.4674,n,1.2263,0,0,0,0,1,NA,NA,practica,NA,NA,NA,Rita is uncomfortable because it is very hot outside.,Is it cold?,no,0,Rita,is,uncomfortable,because,it,is,very,hot,outside.,L2SPAN_2023_70,001,2023-09-15_20h48.20.961,spr_english_2023_list2,2021.1.1,MacIntel,60.0024001,,,,,,,,,,,,,,,,,,,,,,,,,,,,,,
,,,,space,0.5326,space,0.7262,space,0.5463,space,0.507,space,0.5647,space,0.5481,space,0.5341,space,0.5781,space,0.557,n,1.4018,0,1,1,1,1,NA,NA,practica,NA,NA,NA,Peter was running by himself in the park yesterday.,Was Peter painting the wall?,no,0,Peter,was,running,by,himself,in,the,park,yesterday.,L2SPAN_2023_70,001,2023-09-15_20h48.20.961,spr_english_2023_list2,2021.1.1,MacIntel,60.0024001,,,,,,,,,,,,,,,,,,,,,,,,,,,,,,
,,,,space,0.4863,space,0.5305,space,0.4997,space,0.4736,space,0.5181,space,0.516,space,0.5248,space,0.6032,space,0.5769,y,1.7809,0,2,2,2,1,NA,NA,practica,NA,NA,NA,Hannah is watching tv because she is really bored.,Is Hannah in front of a screen?,yes,1,Hannah,is,watching,tv,because,she,is,really,bored.,L2SPAN_2023_70,001,2023-09-15_20h48.20.961,spr_english_2023_list2,2021.1.1,MacIntel,60.0024001,,,,,,,,,,,,,,,,,,,,,,,,,,,,,,
,,,,,,,,,,,,,,,,,,,,,,,,,,,,,1,1_2,neutral_gender_someone,2,9,neutral,Someone called me but they stopped before I answered,Did the person try to communicate?,yes,1,Someone,called,me,but,they,stopped,before,I,answered.,L2SPAN_2023_70,001,2023-09-15_20h48.20.961,spr_english_2023_list2,2021.1.1,MacIntel,60.0024001,space,5.5874,space,0.5457,space,0.5462,space,0.47,space,0.4991,space,0.4968,space,0.5266,space,0.5055,space,0.5007,space,0.5308,y,0,3.3623,0,0,0,0,1,,
,,,,,,,,,,,,,,,,,,,,,,,,,,,,,34,34_1,inclusive_gender_they,2,9,she,Mary is sad because she lost the dog earlier.,Did mary lose something?,no,0,Mary,is,sad,because,she,lost,the,dog,earlier.,L2SPAN_2023_70,001,2023-09-15_20h48.20.961,spr_english_2023_list2,2021.1.1,MacIntel,60.0024001,,,space,1.9007,space,0.7068,space,0.6518,space,0.6314,space,0.5949,space,0.5342,space,0.499,space,0.5118,space,0.4998,y,0,1.33,0,1,1,1,1,,
,,,,,,,,,,,,,,,,,,,,,,,,,,,,,31,31_1,inclusive_gender_reflexive,2,9,himself,Troy was singing by himself in the shower yesterday.,Was Troy singing?,yes,1,Troy,was,singing,by,himself,in,the,shower,yesterday.,L2SPAN_2023_70,001,2023-09-15_20h48.20.961,spr_english_2023_list2,2021.1.1,MacIntel,60.0024001,,,space,0.681,space,0.4506,space,0.465,space,0.4924,space,0.4933,space,0.5051,space,0.4265,space,0.49,space,0.4756,y,0,1.0938,0,2,2,2,1,,
,,,,,,,,,,,,,,,,,,,,,,,,,,,,,37,37_2,inclusive_gender_they,2,9,they,Emily is grateful because they got nice gifts yesterday.,Did Emily get presents?,yes,1,Emily,is,grateful,because,they,got,nice,gifts,yesterday.,L2SPAN_2023_70,001,2023-09-15_20h48.20.961,spr_english_2023_list2,2021.1.1,MacIntel,60.0024001,,,space,0.4991,space,0.3804,space,0.4247,space,0.4351,space,0.4413,space,0.4014,space,0.3977,space,0.4164,space,0.4185,y,0,1.1127,0,3,3,3,1,,
,,,,,,,,,,,,,,,,,,,,,,,,,,,,,55,NA,filler,1and2,9,NA,The aroma of freshly brewed coffee filled the room.,Was the smell nice?,,1,The,aroma,of,freshly,brewed,coffee,filled,the,room.,L2SPAN_2023_70,001,2023-09-15_20h48.20.961,spr_english_2023_list2,2021.1.1,MacIntel,60.0024001,,,space,0.4908,space,0.3515,space,0.3981,space,0.3866,space,0.4565,space,0.4053,space,0.3676,space,0.3655,space,0.3678,y,0,2.9994,0,4,4,4,1,,
,,,,,,,,,,,,,,,,,,,,,,,,,,,,,30,30_2,inclusive_gender_reflexive,2,9,themself,Scott was drinking by themself at the bar earlier.,Was Scott at his apartment?,no,0,Scott,was,drinking,by,themself,at,the,bar,earlier.,L2SPAN_2023_70,001,2023-09-15_20h48.20.961,spr_english_2023_list2,2021.1.1,MacIntel,60.0024001,,,space,0.739,space,0.4641,space,0.4557,space,0.4155,space,0.4381,space,0.4487,space,0.396,space,0.4085,space,0.3817,y,0,4.1934,0,5,5,5,1,,
,,,,,,,,,,,,,,,,,,,,,,,,,,,,,14,14_1,neutral_gender_someone,2,9,masculine,Someone photographed me but he quit before I spoke.,Did someone take pictures?,yes,0,Someone,photographed,me,but,he,quit,before,I,spoke.,L2SPAN_2023_70,001,2023-09-15_20h48.20.961,spr_english_2023_list2,2021.1.1,MacIntel,60.0024001,,,space,0.7122,space,0.4114,space,0.4196,space,0.4501,space,0.3644,space,0.3672,space,0.3835,space,0.3508,space,0.3666,y,0,2.1126,0,6,6,6,1,,
,,,,,,,,,,,,,,,,,,,,,,,,,,,,,28,28_2,inclusive_gender_reflexive,2,9,themself,Tom was swimming by themself at the beach earlier.,Was Tom at the park?,no,0,Tom,was,swimming,by,themself,at,the,beach,earlier.,L2SPAN_2023_70,001,2023-09-15_20h48.20.961,spr_english_2023_list2,2021.1.1,MacIntel,60.0024001,,,space,0.7306,space,0.3862,space,0.388,space,0.3495,space,0.348,space,0.3493,space,0.3515,space,0.365,space,0.3579,n,0,1.1152,0,7,7,7,1,,
,,,,,,,,,,,,,,,,,,,,,,,,,,,,,49,NA,filler,1and2,9,NA,"The sun behind distant mountains, painting the nice sky.",Was the sun showing?,,1,The,sun,behind,distant,"mountains,",painting,the,nice,sky.,L2SPAN_2023_70,001,2023-09-15_20h48.20.961,spr_english_2023_list2,2021.1.1,MacIntel,60.0024001,,,space,0.4802,space,0.3455,space,0.3238,space,0.3683,space,0.3837,space,0.3664,space,0.4178,space,0.3856,space,0.3916,n,0,3.7788,0,8,8,8,1,,
,,,,,,,,,,,,,,,,,,,,,,,,,,,,,38,38_1,inclusive_gender_they,2,9,she,Ruth is angry because she lost the job yesterday.,Is Ruth peaceful?,no,0,Ruth,is,angry,because,she,lost,the,job,yesterday.,L2SPAN_2023_70,001,2023-09-15_20h48.20.961,spr_english_2023_list2,2021.1.1,MacIntel,60.0024001,,,space,0.6228,space,0.5121,space,0.4132,space,0.465,space,0.4799,space,0.5159,space,0.4528,space,0.4359,space,0.4386,n,0,1.3781,0,9,9,9,1,,
,,,,,,,,,,,,,,,,,,,,,,,,,,,,,19,19_1,inclusive_gender_reflexive,2,9,himself,James was studying by himself in the library yesterday.,Was James at the library?,yes,1,James,was,studying,by,himself,in,the,library,yesterday.,L2SPAN_2023_70,001,2023-09-15_20h48.20.961,spr_english_2023_list2,2021.1.1,MacIntel,60.0024001,,,space,0.53,space,0.3988,space,0.415,space,0.4003,space,0.3983,space,0.3967,space,0.3505,space,0.3513,space,0.4206,y,0,1.4514,0,10,10,10,1,,
,,,,,,,,,,,,,,,,,,,,,,,,,,,,,8,8_1,neutral_gender_someone,2,9,masculine,Someone serenaded me and he stopped before I applauded.,Did the person dance?,no,0,Someone,serenaded,me,and,he,stopped,before,I,applauded.,L2SPAN_2023_70,001,2023-09-15_20h48.20.961,spr_english_2023_list2,2021.1.1,MacIntel,60.0024001,,,space,0.5395,space,0.3754,space,0.3857,space,0.6155,space,0.3451,space,0.3808,space,0.3627,space,0.3515,space,0.3674,n,0,1.2038,0,11,11,11,1,,
,,,,,,,,,,,,,,,,,,,,,,,,,,,,,32,32_2,inclusive_gender_reflexive,2,9,themself,Hugh was stretching by themself in the garden earlier.,Was Hugh in the attic?,no,0,Hugh,was,stretching,by,themself,in,the,garden,earlier.,L2SPAN_2023_70,001,2023-09-15_20h48.20.961,spr_english_2023_list2,2021.1.1,MacIntel,60.0024001,,,space,0.4612,space,0.3996,space,0.3597,space,0.3824,space,0.3654,space,0.3824,space,0.3572,space,0.3721,space,0.4094,n,0,1.1211,0,12,12,12,1,,
,,,,,,,,,,,,,,,,,,,,,,,,,,,,,58,NA,filler,1and2,9,NA,"Scent of flowers wafted, enchanting with its delicate fragrance.",Did the flowers smell bad?,,0,Scent,of,flowers,"wafted,",enchanting,with,its,delicate,fragrance.,L2SPAN_2023_70,001,2023-09-15_20h48.20.961,spr_english_2023_list2,2021.1.1,MacIntel,60.0024001,,,space,0.4644,space,0.3998,space,0.3562,space,0.3888,space,0.4185,space,0.6322,space,0.44,space,0.4806,space,0.4857,n,0,1.2924,0,13,13,13,1,,
,,,,,,,,,,,,,,,,,,,,,,,,,,,,,17,17_1,inclusive_gender_reflexive,2,9,himself,John was sitting by himself on the bench yesterday.,Was John on a bench?,yes,1,John,was,sitting,by,himself,on,the,bench,yesterday.,L2SPAN_2023_70,001,2023-09-15_20h48.20.961,spr_english_2023_list2,2021.1.1,MacIntel,60.0024001,,,space,0.4825,space,0.393,space,0.4607,space,0.4048,space,0.4109,space,0.3785,space,0.4669,space,0.3839,space,0.4046,y,0,1.1328,0,14,14,14,1,,
,,,,,,,,,,,,,,,,,,,,,,,,,,,,,5,5_2,neutral_gender_someone,2,9,neutral,Someone robbed me but they fled before I screamed.,Did a theft occur?,yes,1,Someone,robbed,me,but,they,fled,before,I,screamed.,L2SPAN_2023_70,001,2023-09-15_20h48.20.961,spr_english_2023_list2,2021.1.1,MacIntel,60.0024001,,,space,0.5693,space,0.4039,space,0.3881,space,0.4004,space,0.3734,space,0.3433,space,0.3937,space,0.3659,space,0.4316,y,0,1.1199,0,15,15,15,1,,
,,,,,,,,,,,,,,,,,,,,,,,,,,,,,7,7_2,neutral_gender_someone,2,9,neutral,Someone threatened me but they ran before I reacted.,Was there a threat?,yes,1,Someone,threatened,me,but,they,ran,before,I,reacted.,L2SPAN_2023_70,001,2023-09-15_20h48.20.961,spr_english_2023_list2,2021.1.1,MacIntel,60.0024001,,,space,0.4835,space,0.4371,space,0.4607,space,0.4537,space,0.5502,space,0.4161,space,0.4294,space,0.4006,space,0.4396,y,0,1.124,0,16,16,16,1,,
,,,,,,,,,,,,,,,,,,,,,,,,,,,,,26,26_2,inclusive_gender_reflexive,2,9,themself,Mark was walking by themself in the park earlier.,Was Mark in the living room?,no,0,Mark,was,walking,by,themself,in,the,park,earlier.,L2SPAN_2023_70,001,2023-09-15_20h48.20.961,spr_english_2023_list2,2021.1.1,MacIntel,60.0024001,,,space,0.5942,space,0.4235,space,0.4046,space,0.4062,space,0.4431,space,0.4347,space,0.493,space,0.3455,space,0.3863,n,0,1.0771,0,17,17,17,1,,
,,,,,,,,,,,,,,,,,,,,,,,,,,,,,44,44_1,inclusive_gender_they,2,9,she,Alice is hopeful because she had good luck yesterday.,Is Alice sad?,no,0,Alice,is,hopeful,because,she,had,good,luck,yesterday.,L2SPAN_2023_70,001,2023-09-15_20h48.20.961,spr_english_2023_list2,2021.1.1,MacIntel,60.0024001,,,space,0.4152,space,0.3991,space,0.364,space,0.3994,space,0.3861,space,0.3655,space,0.3683,space,0.3723,space,0.3645,n,0,0.9576,0,18,18,18,1,,
,,,,,,,,,,,,,,,,,,,,,,,,,,,,,52,NA,filler,1and2,9,NA,"I awaited eagerly, anticipating the arrival of the morning.",Was the person waiting for something?,,1,I,awaited,"eagerly,",anticipating,the,arrival,of,the,morning.,L2SPAN_2023_70,001,2023-09-15_20h48.20.961,spr_english_2023_list2,2021.1.1,MacIntel,60.0024001,,,space,0.3882,space,0.4029,space,0.3983,space,0.4338,space,0.4349,space,0.4811,space,0.3987,space,0.4238,space,0.3819,y,0,1.954,0,19,19,19,1,,
,,,,,,,,,,,,,,,,,,,,,,,,,,,,,27,27_1,inclusive_gender_reflexive,2,9,himself,Paul was drawing by himself in the attic yesterday.,Was Paul drawing?,yes,1,Paul,was,drawing,by,himself,in,the,attic,yesterday.,L2SPAN_2023_70,001,2023-09-15_20h48.20.961,spr_english_2023_list2,2021.1.1,MacIntel,60.0024001,,,space,0.5408,space,0.3637,space,0.3743,space,0.3882,space,0.4023,space,0.3721,space,0.384,space,0.3794,space,0.3991,y,0,1.078,0,20,20,20,1,,
,,,,,,,,,,,,,,,,,,,,,,,,,,,,,16,16_1,neutral_gender_someone,2,9,masculine,Someone passed me and he sped before I noticed.,Was everybody going slow?,no,0,Someone,passed,me,and,he,sped,before,I,noticed.,L2SPAN_2023_70,001,2023-09-15_20h48.20.961,spr_english_2023_list2,2021.1.1,MacIntel,60.0024001,,,space,0.4958,space,0.3953,space,0.3503,space,0.3762,space,0.3659,space,0.3766,space,0.3933,space,0.4245,space,0.4203,n,0,1.3448,0,21,21,21,1,,
,,,,,,,,,,,,,,,,,,,,,,,,,,,,,53,NA,filler,1and2,9,NA,"Waves crashed against the shore, creating a soothing rhythm.",Was the rhythm violent?,,0,Waves,crashed,against,the,"shore,",creating,a,soothing,rhythm.,L2SPAN_2023_70,001,2023-09-15_20h48.20.961,spr_english_2023_list2,2021.1.1,MacIntel,60.0024001,,,space,0.3893,space,0.4112,space,0.3843,space,0.3583,space,0.407,space,0.3526,space,0.3739,space,0.4417,space,0.3805,n,0,1.5405,0,22,22,22,1,,
,,,,,,,,,,,,,,,,,,,,,,,,,,,,,42,42_1,inclusive_gender_they,2,9,she,Nancy is upset because she fell on stage yesterday.,Is Nancy calm?,no,0,Nancy,is,upset,because,she,fell,on,stage,yesterday.,L2SPAN_2023_70,001,2023-09-15_20h48.20.961,spr_english_2023_list2,2021.1.1,MacIntel,60.0024001,,,space,0.4605,space,0.3532,space,0.3613,space,0.5513,space,0.4379,space,0.433,space,0.4152,space,0.6263,space,0.4975,n,0,2.4831,0,23,23,23,1,,
,,,,,,,,,,,,,,,,,,,,,,,,,,,,,4,4_1,neutral_gender_someone,2,9,masculine,Someone punched me but he ran before I noticed.,Was everybody involved peaceful?,no,0,Someone,punched,me,but,he,ran,before,I,noticed.,L2SPAN_2023_70,001,2023-09-15_20h48.20.961,spr_english_2023_list2,2021.1.1,MacIntel,60.0024001,,,space,0.4935,space,0.4055,space,0.5679,space,0.3836,space,0.3494,space,0.3664,space,0.3324,space,0.3654,space,0.3846,n,0,1.3282,0,24,24,24,1,,
,,,,,,,,,,,,,,,,,,,,,,,,,,,,,40,40_1,inclusive_gender_they,2,9,she,Clara is relieved because she got a promotion yesterday.,Does Clara feel bad?,no,0,Clara,is,relieved,because,she,got,a,promotion,yesterday.,L2SPAN_2023_70,001,2023-09-15_20h48.20.961,spr_english_2023_list2,2021.1.1,MacIntel,60.0024001,,,space,0.3952,space,0.3844,space,0.3842,space,0.3742,space,0.3543,space,0.407,space,0.3656,space,0.3656,space,0.3645,n,0,0.9875,0,25,25,25,1,,
,,,,,,,,,,,,,,,,,,,,,,,,,,,,,23,23_1,inclusive_gender_reflexive,2,9,himself,Ben was dancing by himself in the kitchen yesterday.,Was Ben in the kitchen?,yes,1,Ben,was,dancing,by,himself,in,the,kitchen,yesterday.,L2SPAN_2023_70,001,2023-09-15_20h48.20.961,spr_english_2023_list2,2021.1.1,MacIntel,60.0024001,,,space,0.3997,space,0.3798,space,0.3308,space,0.3854,space,0.3702,space,0.3808,space,0.3496,space,0.3676,space,0.4389,y,0,0.9855,0,26,26,26,1,,
,,,,,,,,,,,,,,,,,,,,,,,,,,,,,15,15_2,neutral_gender_someone,2,9,neutral,Someone pranked me but they ran before I reacted.,Was a joke mentioned?,yes,1,Someone,pranked,me,but,they,ran,before,I,reacted.,L2SPAN_2023_70,001,2023-09-15_20h48.20.961,spr_english_2023_list2,2021.1.1,MacIntel,60.0024001,,,space,0.4785,space,0.3354,space,0.3695,space,0.3378,space,0.3871,space,0.3553,space,0.3835,space,0.3957,space,0.3738,y,0,1.2635,0,27,27,27,1,,
,,,,,,,,,,,,,,,,,,,,,,,,,,,,,3,3_2,neutral_gender_someone,2,9,neutral,Someone hit me but they ran before I reacted,Was there physical violence?,yes,1,Someone,hit,me,but,they,ran,before,I,reacted.,L2SPAN_2023_70,001,2023-09-15_20h48.20.961,spr_english_2023_list2,2021.1.1,MacIntel,60.0024001,,,space,0.4523,space,0.4142,space,0.3556,space,0.3327,space,0.3282,space,0.3788,space,0.3219,space,0.3492,space,0.3159,y,0,1.244,0,28,28,28,1,,
,,,,,,,,,,,,,,,,,,,,,,,,,,,,,50,NA,filler,1and2,9,NA,"He smiled warmly, extending a hand in friendly greeting.",Did someone fall?,,0,He,smiled,"warmly,",extending,a,hand,in,friendly,greeting.,L2SPAN_2023_70,001,2023-09-15_20h48.20.961,spr_english_2023_list2,2021.1.1,MacIntel,60.0024001,,,space,0.5272,space,0.3833,space,0.367,space,0.3316,space,0.3821,space,0.3658,space,0.3659,space,0.372,space,0.3747,n,0,0.8827,0,29,29,29,1,,
,,,,,,,,,,,,,,,,,,,,,,,,,,,,,41,41_2,inclusive_gender_they,2,9,they,Laura is happy because they passed the exam earlier.,Is Laura in a good mood?,yes,1,Laura,is,happy,because,they,passed,the,exam,earlier.,L2SPAN_2023_70,001,2023-09-15_20h48.20.961,spr_english_2023_list2,2021.1.1,MacIntel,60.0024001,,,space,0.3932,space,0.3738,space,0.3813,space,0.3295,space,0.3994,space,0.3402,space,0.3672,space,0.3749,space,0.3662,y,0,1.0452,0,30,30,30,1,,
,,,,,,,,,,,,,,,,,,,,,,,,,,,,,54,NA,filler,1and2,9,NA,"She danced a lot, her movements resembling pure poetry.",Was it an unpleasant dance?,,0,She,danced,a,"lot,",her,movements,resembling,pure,poetry.,L2SPAN_2023_70,001,2023-09-15_20h48.20.961,spr_english_2023_list2,2021.1.1,MacIntel,60.0024001,,,space,0.483,space,0.3539,space,0.3488,space,0.3595,space,0.3998,space,0.409,space,0.4362,space,0.3323,space,0.3821,n,0,1.0563,0,31,31,31,1,,
,,,,,,,,,,,,,,,,,,,,,,,,,,,,,24,24_2,inclusive_gender_reflexive,2,9,themself,Jake was strolling by themself at the park earlier.,Was Jake swimming?,no,0,Jake,was,strolling,by,themself,at,the,park,earlier.,L2SPAN_2023_70,001,2023-09-15_20h48.20.961,spr_english_2023_list2,2021.1.1,MacIntel,60.0024001,,,space,0.3403,space,0.3652,space,0.3413,space,0.3349,space,0.3672,space,0.3983,space,0.3454,space,0.3516,space,0.3807,n,0,0.8126,0,32,32,32,1,,
,,,,,,,,,,,,,,,,,,,,,,,,,,,,,46,46_1,inclusive_gender_they,2,9,she,Kate is tipsy because she had two drinks earlier.,Is Kate sober?,no,0,Kate,is,tipsy,because,she,had,two,drinks,earlier.,L2SPAN_2023_70,001,2023-09-15_20h48.20.961,spr_english_2023_list2,2021.1.1,MacIntel,60.0024001,,,space,0.3964,space,0.3225,space,0.407,space,0.3262,space,0.3687,space,0.3891,space,0.3806,space,0.3809,space,0.3521,n,0,1.3151,0,33,33,33,1,,
,,,,,,,,,,,,,,,,,,,,,,,,,,,,,25,25_1,inclusive_gender_reflexive,2,9,himself,Blake was fishing by himself at the riverbank yesterday.,Was Blake fishing?,yes,1,Blake,was,fishing,by,himself,at,the,riverbank,yesterday.,L2SPAN_2023_70,001,2023-09-15_20h48.20.961,spr_english_2023_list2,2021.1.1,MacIntel,60.0024001,,,space,0.3804,space,0.3831,space,0.3394,space,0.3816,space,0.3677,space,0.3658,space,0.3647,space,0.64,space,0.3702,y,0,1.0425,0,34,34,34,1,,
,,,,,,,,,,,,,,,,,,,,,,,,,,,,,43,43_2,inclusive_gender_they,2,9,they,Rose is content because they won an award earlier.,Is Rose happy?,yes,1,Rose,is,content,because,they,won,an,award,earlier.,L2SPAN_2023_70,001,2023-09-15_20h48.20.961,spr_english_2023_list2,2021.1.1,MacIntel,60.0024001,,,space,0.5126,space,0.3478,space,0.3659,space,0.3994,space,0.3591,space,0.3657,space,0.3639,space,0.349,space,0.4263,y,0,1.061,0,35,35,35,1,,
,,,,,,,,,,,,,,,,,,,,,,,,,,,,,51,NA,filler,1and2,9,NA,"The old oak tree stood tall, casting shade below.",Was a big plant mentioned? ,,1,The,old,oak,tree,stood,"tall,",casting,shade,below.,L2SPAN_2023_70,001,2023-09-15_20h48.20.961,spr_english_2023_list2,2021.1.1,MacIntel,60.0024001,,,space,0.5,space,0.3719,space,0.3655,space,0.3813,space,0.3474,space,0.3379,space,0.3565,space,0.4199,space,0.4019,y,0,1.2346,0,36,36,36,1,,
,,,,,,,,,,,,,,,,,,,,,,,,,,,,,22,22_2,inclusive_gender_reflexive,2,9,themself,Max was painting by themself in the studio earlier.,Was Max watching tv?,no,0,Max,was,painting,by,themself,in,the,studio,earlier.,L2SPAN_2023_70,001,2023-09-15_20h48.20.961,spr_english_2023_list2,2021.1.1,MacIntel,60.0024001,,,space,0.4674,space,0.3482,space,0.3401,space,0.3572,space,0.3746,space,0.3816,space,0.3507,space,0.3431,space,0.3537,n,0,0.9442,0,37,37,37,1,,
,,,,,,,,,,,,,,,,,,,,,,,,,,,,,33,33_2,inclusive_gender_they,2,9,they,Sara is happy because they found new friends yesterday.,Is Sara in a good mood?,yes,1,Sara,is,happy,because,they,found,new,friends,yesterday.,L2SPAN_2023_70,001,2023-09-15_20h48.20.961,spr_english_2023_list2,2021.1.1,MacIntel,60.0024001,,,space,0.3784,space,0.3338,space,0.3484,space,0.3461,space,0.3741,space,0.3835,space,0.3993,space,0.5389,space,0.439,y,0,1.0181,0,38,38,38,1,,
,,,,,,,,,,,,,,,,,,,,,,,,,,,,,9,9_2,neutral_gender_someone,2,9,neutral,Someone helped me but they left before I finished.,Did the person offer some help?,yes,1,Someone,helped,me,but,they,left,before,I,finished.,L2SPAN_2023_70,001,2023-09-15_20h48.20.961,spr_english_2023_list2,2021.1.1,MacIntel,60.0024001,,,space,0.5219,space,0.353,space,0.3655,space,0.3736,space,0.4343,space,0.3335,space,0.368,space,0.3337,space,0.4343,y,0,2.6206,0,39,39,39,1,,
,,,,,,,,,,,,,,,,,,,,,,,,,,,,,10,10_1,neutral_gender_someone,2,9,masculine,Someone shushed me but he stopped before I noticed.,Was the person happy to hear a voice?,no,0,Someone,shushed,me,but,he,stopped,before,I,noticed.,L2SPAN_2023_70,001,2023-09-15_20h48.20.961,spr_english_2023_list2,2021.1.1,MacIntel,60.0024001,,,space,0.5656,space,0.3638,space,0.3436,space,0.3755,space,0.3852,space,0.4064,space,0.3509,space,0.6679,space,0.3521,n,0,1.9877,0,40,40,40,1,,
,,,,,,,,,,,,,,,,,,,,,,,,,,,,,11,11_2,neutral_gender_someone,2,9,neutral,Someone pushed me but they tripped after I fell.,Was there any sort of physical violence?,yes,1,Someone,pushed,me,but,they,tripped,after,I,fell.,L2SPAN_2023_70,001,2023-09-15_20h48.20.961,spr_english_2023_list2,2021.1.1,MacIntel,60.0024001,,,space,0.384,space,0.3624,space,0.3673,space,0.3338,space,0.3997,space,0.3384,space,0.4016,space,0.3221,space,0.4032,y,0,1.5798,0,41,41,41,1,,
,,,,,,,,,,,,,,,,,,,,,,,,,,,,,39,39_2,inclusive_gender_they,2,9,they,Judy is confused because they lost the map ealier.,Did Judy lose something?,yes,1,Judy,is,confused,because,they,lost,the,map,ealier.,L2SPAN_2023_70,001,2023-09-15_20h48.20.961,spr_english_2023_list2,2021.1.1,MacIntel,60.0024001,,,space,0.4845,space,0.3715,space,0.366,space,0.3732,space,0.3846,space,0.6648,space,0.4902,space,0.4163,space,0.4161,y,0,1.6381,0,42,42,42,1,,
,,,,,,,,,,,,,,,,,,,,,,,,,,,,,57,NA,filler,1and2,9,NA,"The child's laughter echoed, bringing joy to the playground.",Was the child happy?,,1,The,child's,laughter,"echoed,",bringing,joy,to,the,playground.,L2SPAN_2023_70,001,2023-09-15_20h48.20.961,spr_english_2023_list2,2021.1.1,MacIntel,60.0024001,,,space,0.5338,space,0.3474,space,0.3544,space,0.4047,space,0.3753,space,0.3905,space,0.3752,space,0.3871,space,0.3518,y,0,0.9789,0,43,43,43,1,,
,,,,,,,,,,,,,,,,,,,,,,,,,,,,,21,21_1,inclusive_gender_reflexive,2,9,himself,Jack was cooking by himself in the kitchen yesterday.,Was Jack in the kitchen?,yes,1,Jack,was,cooking,by,himself,in,the,kitchen,yesterday.,L2SPAN_2023_70,001,2023-09-15_20h48.20.961,spr_english_2023_list2,2021.1.1,MacIntel,60.0024001,,,space,0.4472,space,0.4037,space,0.3356,space,0.4153,space,0.3474,space,0.3441,space,0.3536,space,0.3541,space,0.3826,y,0,1.0596,0,44,44,44,1,,
,,,,,,,,,,,,,,,,,,,,,,,,,,,,,35,35_2,inclusive_gender_they,2,9,they,Susan is joyful because they won the lottery yesterday.,Is Susan in a good mood?,yes,1,Susan,is,joyful,because,they,won,the,lottery,yesterday.,L2SPAN_2023_70,001,2023-09-15_20h48.20.961,spr_english_2023_list2,2021.1.1,MacIntel,60.0024001,,,space,0.4336,space,0.3574,space,0.3714,space,0.3741,space,0.3905,space,0.383,space,0.3838,space,0.3426,space,0.3848,y,0,1.0031,0,45,45,45,1,,
,,,,,,,,,,,,,,,,,,,,,,,,,,,,,36,36_1,inclusive_gender_they,2,9,she,Helen is anxious because she dread the presentation earlier.,Did Helen's presentation go well?,no,0,Helen,is,anxious,because,she,dread,the,presentation,earlier.,L2SPAN_2023_70,001,2023-09-15_20h48.20.961,spr_english_2023_list2,2021.1.1,MacIntel,60.0024001,,,space,0.4543,space,0.335,space,0.3514,space,0.3676,space,0.3646,space,0.3668,space,0.3343,space,0.3915,space,0.3689,n,0,2.4311,0,46,46,46,1,,
,,,,,,,,,,,,,,,,,,,,,,,,,,,,,56,NA,filler,1and2,9,NA,"They went on an exciting trip, embracing their destiny.",Did they stay home?,,0,They,went,on,an,exciting,"trip,",embracing,their,destiny.,L2SPAN_2023_70,001,2023-09-15_20h48.20.961,spr_english_2023_list2,2021.1.1,MacIntel,60.0024001,,,space,0.5442,space,0.3779,space,0.3168,space,0.3689,space,0.3509,space,0.3799,space,0.3578,space,0.381,space,0.3555,n,0,1.2353,0,47,47,47,1,,
,,,,,,,,,,,,,,,,,,,,,,,,,,,,,2,2_1,neutral_gender_someone,2,9,masculine,Someone warned me and he helped before I fell.,Did everybody maintain stability?,no,0,Someone,warned,me,and,he,helped,before,I,fell.,L2SPAN_2023_70,001,2023-09-15_20h48.20.961,spr_english_2023_list2,2021.1.1,MacIntel,60.0024001,,,space,0.4473,space,0.3636,space,0.3393,space,0.3524,space,0.3862,space,0.2736,space,0.4651,space,0.6203,space,0.3659,y,0,4.5282,0,48,48,48,1,,
,,,,,,,,,,,,,,,,,,,,,,,,,,,,,45,45_2,inclusive_gender_they,2,9,they,Patricia is upset because they missed the bus earlier.,Is Patricia in a bad mood?,yes,1,Patricia,is,upset,because,they,missed,the,bus,earlier.,L2SPAN_2023_70,001,2023-09-15_20h48.20.961,spr_english_2023_list2,2021.1.1,MacIntel,60.0024001,,,space,0.9644,space,0.764,space,0.3937,space,0.3816,space,0.3142,space,0.3647,space,0.5178,space,0.3661,space,0.2723,y,0,1.1511,0,49,49,49,1,,
,,,,,,,,,,,,,,,,,,,,,,,,,,,,,29,29_1,inclusive_gender_reflexive,2,9,himself,Kyle was cycling by himself on the trail yesterday.,Was Kyle on the trail?,yes,1,Kyle,was,cycling,by,himself,on,the,trail,yesterday.,L2SPAN_2023_70,001,2023-09-15_20h48.20.961,spr_english_2023_list2,2021.1.1,MacIntel,60.0024001,,,space,0.5996,space,0.3351,space,0.3553,space,0.3741,space,0.3668,space,0.3832,space,0.4,space,0.4198,space,0.3841,y,0,2.4607,0,50,50,50,1,,
,,,,,,,,,,,,,,,,,,,,,,,,,,,,,59,NA,filler,1and2,9,NA,"Colorful balloons floated away, disappearing into the infinite sky.",Did the balloons have many colors?,,1,Colorful,balloons,floated,"away,",disappearing,into,the,infinite,sky.,L2SPAN_2023_70,001,2023-09-15_20h48.20.961,spr_english_2023_list2,2021.1.1,MacIntel,60.0024001,,,space,0.6876,space,0.3266,space,0.3926,space,0.3884,space,0.3969,space,0.4216,space,0.378,space,0.3328,space,0.3202,y,0,7.4942,0,51,51,51,1,,
,,,,,,,,,,,,,,,,,,,,,,,,,,,,,20,20_2,inclusive_gender_reflexive,2,9,themself,Mike was jogging by themself in the park earlier.,Was Mike sleeping?,no,0,Mike,was,jogging,by,themself,in,the,park,earlier.,L2SPAN_2023_70,001,2023-09-15_20h48.20.961,spr_english_2023_list2,2021.1.1,MacIntel,60.0024001,,,space,0.9978,space,0.3651,space,0.397,space,0.4593,space,0.3651,space,0.3281,space,0.3376,space,0.3409,space,0.3809,n,0,1.138,0,52,52,52,1,,
,,,,,,,,,,,,,,,,,,,,,,,,,,,,,48,48_1,inclusive_gender_they,2,9,she,Martha is tired because she read two novels earlier.,Does Martha have a lot of energy?,no,0,Martha,is,tired,because,she,read,two,novels,earlier.,L2SPAN_2023_70,001,2023-09-15_20h48.20.961,spr_english_2023_list2,2021.1.1,MacIntel,60.0024001,,,space,0.4215,space,0.2986,space,0.411,space,0.3112,space,0.3179,space,0.3499,space,0.3333,space,0.3373,space,0.3515,n,0,1.0663,0,53,53,53,1,,
,,,,,,,,,,,,,,,,,,,,,,,,,,,,,6,6_1,neutral_gender_someone,2,9,masculine,Someone kissed me and he smiled before I blushed.,Did someone steal a pencil?,no,0,Someone,kissed,me,and,he,smiled,before,I,blushed.,L2SPAN_2023_70,001,2023-09-15_20h48.20.961,spr_english_2023_list2,2021.1.1,MacIntel,60.0024001,,,space,0.3416,space,0.352,space,0.348,space,0.3152,space,0.3014,space,0.3197,space,0.36,space,0.3559,space,0.382,n,0,1.5113,0,54,54,54,1,,
,,,,,,,,,,,,,,,,,,,,,,,,,,,,,18,18_2,inclusive_gender_reflexive,2,9,themself,Luke was reading by themself on the couch earlier.,Was Luke painting?,no,0,Luke,was,reading,by,themself,on,the,couch,earlier.,L2SPAN_2023_70,001,2023-09-15_20h48.20.961,spr_english_2023_list2,2021.1.1,MacIntel,60.0024001,,,space,0.3636,space,0.3142,space,0.33,space,0.3503,space,0.3631,space,0.3665,space,0.567,space,0.2831,space,0.3466,n,0,1.0791,0,55,55,55,1,,
,,,,,,,,,,,,,,,,,,,,,,,,,,,,,60,NA,filler,1and2,9,NA,"Soft raindrops tapped gently, creating a rhythmic melody outside.",Was it a sunny day?,,0,Soft,raindrops,tapped,"gently,",creating,a,rhythmic,melody,outside.,L2SPAN_2023_70,001,2023-09-15_20h48.20.961,spr_english_2023_list2,2021.1.1,MacIntel,60.0024001,,,space,0.3579,space,0.3538,space,0.2999,space,0.3496,space,0.3336,space,0.399,space,0.3164,space,0.3508,space,0.3827,n,0,1.125,0,56,56,56,1,,
,,,,,,,,,,,,,,,,,,,,,,,,,,,,,47,47_2,inclusive_gender_they,2,9,they,Jane is happy because they won the game earlier.,Did Jane win something?,yes,1,Jane,is,happy,because,they,won,the,game,earlier.,L2SPAN_2023_70,001,2023-09-15_20h48.20.961,spr_english_2023_list2,2021.1.1,MacIntel,60.0024001,,,space,0.3525,space,0.3234,space,0.356,space,0.3195,space,0.3345,space,0.3349,space,0.3167,space,0.301,space,0.3414,y,0,1.0284,0,57,57,57,1,,
,,,,,,,,,,,,,,,,,,,,,,,,,,,,,12,12_1,neutral_gender_someone,2,9,masculine,Someone scared me and he ran after I screamed.,Did the person write a note?,no,0,Someone,scared,me,and,he,ran,after,I,screamed.,L2SPAN_2023_70,001,2023-09-15_20h48.20.961,spr_english_2023_list2,2021.1.1,MacIntel,60.0024001,,,space,0.4664,space,0.3338,space,0.3398,space,0.3504,space,0.3483,space,0.3327,space,0.3248,space,0.3655,space,0.3118,n,0,1.6126,0,58,58,58,1,,
,,,,,,,,,,,,,,,,,,,,,,,,,,,,,13,13_2,neutral_gender_someone,2,9,neutral,Someone filmed me but they stopped after I objected.,Did the person use a technological device?,yes,1,Someone,filmed,me,but,they,stopped,after,I,objected.,L2SPAN_2023_70,001,2023-09-15_20h48.20.961,spr_english_2023_list2,2021.1.1,MacIntel,60.0024001,,,space,1.3161,space,0.7668,space,0.4028,space,1.0387,space,0.7648,space,0.3902,space,0.3164,space,0.3417,space,0.3174,y,0,1.8715,0,59,59,59,1,,
,,,,,,,,,,,,,,,,,,,,,,,,,,,,,,,,,,,,,,,,,,,,,,,,L2SPAN_2023_70,001,2023-09-15_20h48.20.961,spr_english_2023_list2,2021.1.1,MacIntel,60.0024001,,,,,,,,,,,,,,,,,,,,,,,,,,,,,y,0.7378
