key_resp.keys,key_resp.rt,key_resp_2.keys,key_resp_2.rt,key_resp_3.keys,key_resp_3.rt,key_resp_4.keys,key_resp_4.rt,key_resp_5.keys,key_resp_5.rt,key_resp_6.keys,key_resp_6.rt,key_resp_7.keys,key_resp_7.rt,key_resp_8.keys,key_resp_8.rt,key_resp_9.keys,key_resp_9.rt,key_resp_10.keys,key_resp_10.rt,key_resp_11.keys,key_resp_11.rt,key_resp_15.keys,key_resp_15.rt,trials_2.thisRepN,trials_2.thisTrialN,trials_2.thisN,trials_2.thisIndex,trials_2.ran,base_sentence_number,version,experiment,list,numb_words,gender,sentence,question,answer,CorrAns,w1,w2,w3,w4,w5,w6,w7,w8,w9,participant,session,date,expName,psychopyVersion,OS,frameRate,key_resp_16.keys,key_resp_16.rt,word1.keys,word1.rt,word2.keys,word2.rt,word3.keys,word3.rt,word4.keys,word4.rt,word5.keys,word5.rt,word6.keys,word6.rt,word7.keys,word7.rt,word8.keys,word8.rt,word9.keys,word9.rt,compquestion.keys,compquestion.corr,compquestion.rt,trials.thisRepN,trials.thisTrialN,trials.thisN,trials.thisIndex,trials.ran,endoftask.keys,endoftask.rt
space,0.0043,y,0.2724,space,0.845,space,0.1716,space,0.1939,space,0.152,space,0.182,space,0.145,space,0.1542,space,0.1327,space,0.1644,y,0.5014,0,0,0,0,1,NA,NA,practica,NA,NA,NA,Rita is uncomfortable because it is very hot outside.,Is it cold?,no,0,Rita,is,uncomfortable,because,it,is,very,hot,outside.,L2SPAN_2023_49,001,2023-09-13_20h14.56.634,spr_english_2023_list1,2021.1.1,MacIntel,60.0024001,,,,,,,,,,,,,,,,,,,,,,,,,,,,,,
,,,,space,0.4356,space,0.1836,space,0.1546,space,0.1552,space,0.152,space,0.1695,space,0.1682,space,0.1755,space,0.2159,y,3.0307,0,1,1,1,1,NA,NA,practica,NA,NA,NA,Peter was running by himself in the park yesterday.,Was Peter painting the wall?,no,0,Peter,was,running,by,himself,in,the,park,yesterday.,L2SPAN_2023_49,001,2023-09-13_20h14.56.634,spr_english_2023_list1,2021.1.1,MacIntel,60.0024001,,,,,,,,,,,,,,,,,,,,,,,,,,,,,,
,,,,space,0.6959,space,0.3998,space,0.2837,space,0.3165,space,0.3051,space,0.2643,space,0.267,space,0.2501,space,0.2715,y,1.7953,0,2,2,2,1,NA,NA,practica,NA,NA,NA,Hannah is watching tv because she is really bored.,Is Hannah in front of a screen?,yes,1,Hannah,is,watching,tv,because,she,is,really,bored.,L2SPAN_2023_49,001,2023-09-13_20h14.56.634,spr_english_2023_list1,2021.1.1,MacIntel,60.0024001,,,,,,,,,,,,,,,,,,,,,,,,,,,,,,
,,,,,,,,,,,,,,,,,,,,,,,,,,,,,1,1_1,neutral_gender_someone,1,9,masculine,Someone called me but he stopped before I answered,Did the person try to communicate?,yes,1,Someone,called,me,but,he,stopped,before,I,answered.,L2SPAN_2023_49,001,2023-09-13_20h14.56.634,spr_english_2023_list1,2021.1.1,MacIntel,60.0024001,space,3.5839,space,0.7441,space,0.2784,space,0.1898,space,0.1808,space,0.1846,space,0.1948,space,0.1825,space,0.1898,space,0.2144,y,0,2.8487,0,0,0,0,1,,
,,,,,,,,,,,,,,,,,,,,,,,,,,,,,21,21_2,inclusive_gender_reflexive,1,9,themself,Jack was cooking by themself in the kitchen yesterday.,Was Jack in the kitchen?,yes,1,Jack,was,cooking,by,themself,in,the,kitchen,yesterday.,L2SPAN_2023_49,001,2023-09-13_20h14.56.634,spr_english_2023_list1,2021.1.1,MacIntel,60.0024001,,,space,0.2963,space,0.2833,space,0.1737,space,0.2015,space,0.1626,space,0.185,space,0.2377,space,0.1997,space,0.3997,y,0,1.152,0,1,1,1,1,,
,,,,,,,,,,,,,,,,,,,,,,,,,,,,,55,NA,filler,1and2,9,NA,The aroma of freshly brewed coffee filled the room.,Was the smell nice?,,1,The,aroma,of,freshly,brewed,coffee,filled,the,room.,L2SPAN_2023_49,001,2023-09-13_20h14.56.634,spr_english_2023_list1,2021.1.1,MacIntel,60.0024001,,,space,0.2677,space,0.2014,space,0.1516,space,0.1825,space,0.1487,space,0.1817,space,0.1624,space,0.1704,space,0.1853,y,0,2.6959,0,2,2,2,1,,
,,,,,,,,,,,,,,,,,,,,,,,,,,,,,22,22_1,inclusive_gender_reflexive,1,9,himself,Max was painting by himself in the studio earlier.,Was Max watching tv?,no,0,Max,was,painting,by,himself,in,the,studio,earlier.,L2SPAN_2023_49,001,2023-09-13_20h14.56.634,spr_english_2023_list1,2021.1.1,MacIntel,60.0024001,,,space,0.2466,space,0.201,space,0.1781,space,0.1531,space,0.1828,space,0.1865,space,0.2019,space,0.1823,space,0.1962,n,0,1.5069,0,3,3,3,1,,
,,,,,,,,,,,,,,,,,,,,,,,,,,,,,33,33_1,inclusive_gender_they,1,9,she,Sara is happy because she found new friends yesterday.,Is Sara in a good mood?,yes,1,Sara,is,happy,because,she,found,new,friends,yesterday.,L2SPAN_2023_49,001,2023-09-13_20h14.56.634,spr_english_2023_list1,2021.1.1,MacIntel,60.0024001,,,space,0.7481,space,0.2005,space,0.1645,space,0.1767,space,0.1806,space,0.1626,space,0.2045,space,0.2042,space,0.1815,y,0,1.0616,0,4,4,4,1,,
,,,,,,,,,,,,,,,,,,,,,,,,,,,,,31,31_2,inclusive_gender_reflexive,1,9,themself,Troy was singing by themself in the shower yesterday.,Was Troy singing?,yes,1,Troy,was,singing,by,themself,in,the,shower,yesterday.,L2SPAN_2023_49,001,2023-09-13_20h14.56.634,spr_english_2023_list1,2021.1.1,MacIntel,60.0024001,,,space,0.2059,space,0.1732,space,0.2072,space,0.1987,space,0.1619,space,0.2022,space,0.1846,space,0.25,space,0.1773,y,0,0.8711,0,5,5,5,1,,
,,,,,,,,,,,,,,,,,,,,,,,,,,,,,60,NA,filler,1and2,9,NA,"Soft raindrops tapped gently, creating a rhythmic melody outside.",Was it a sunny day?,,0,Soft,raindrops,tapped,"gently,",creating,a,rhythmic,melody,outside.,L2SPAN_2023_49,001,2023-09-13_20h14.56.634,spr_english_2023_list1,2021.1.1,MacIntel,60.0024001,,,space,160.799,space,0.3336,space,0.1483,space,0.185,space,0.1863,space,0.1983,space,0.1993,space,0.1487,space,0.1647,n,0,2.1823,0,6,6,6,1,,
,,,,,,,,,,,,,,,,,,,,,,,,,,,,,34,34_2,inclusive_gender_they,1,9,they,Mary is sad because they lost the dog earlier.,Did mary lose something?,no,0,Mary,is,sad,because,they,lost,the,dog,earlier.,L2SPAN_2023_49,001,2023-09-13_20h14.56.634,spr_english_2023_list1,2021.1.1,MacIntel,60.0024001,,,space,0.4669,space,0.1661,space,0.1503,space,0.148,space,0.1745,space,0.1665,space,0.1827,space,0.2232,space,0.3524,y,0,1.6306,0,7,7,7,1,,
,,,,,,,,,,,,,,,,,,,,,,,,,,,,,10,10_2,neutral_gender_someone,1,9,neutral,Someone shushed me but they stopped before I noticed.,Was the person happy to hear a voice?,no,0,Someone,shushed,me,but,they,stopped,before,I,noticed.,L2SPAN_2023_49,001,2023-09-13_20h14.56.634,spr_english_2023_list1,2021.1.1,MacIntel,60.0024001,,,space,57.6187,space,0.3686,space,0.2073,space,0.3373,space,0.2052,space,0.2157,space,0.2349,space,0.2499,space,0.2351,n,0,1.3554,0,8,8,8,1,,
,,,,,,,,,,,,,,,,,,,,,,,,,,,,,56,NA,filler,1and2,9,NA,"They went on an exciting trip, embracing their destiny.",Did they stay home?,,0,They,went,on,an,exciting,"trip,",embracing,their,destiny.,L2SPAN_2023_49,001,2023-09-13_20h14.56.634,spr_english_2023_list1,2021.1.1,MacIntel,60.0024001,,,space,1.1466,space,0.1998,space,0.1827,space,0.2001,space,0.1806,space,0.2075,space,0.1887,space,0.2368,space,0.2817,n,0,1.0999,0,9,9,9,1,,
,,,,,,,,,,,,,,,,,,,,,,,,,,,,,23,23_2,inclusive_gender_reflexive,1,9,themself,Ben was dancing by themself in the kitchen yesterday.,Was Ben in the kitchen?,yes,1,Ben,was,dancing,by,themself,in,the,kitchen,yesterday.,L2SPAN_2023_49,001,2023-09-13_20h14.56.634,spr_english_2023_list1,2021.1.1,MacIntel,60.0024001,,,space,0.2974,space,0.1431,space,0.1643,space,0.1508,space,0.2066,space,0.2156,space,0.2547,space,0.3036,space,0.2933,y,0,1.9002,0,10,10,10,1,,
,,,,,,,,,,,,,,,,,,,,,,,,,,,,,9,9_1,neutral_gender_someone,1,9,masculine,Someone helped me but he left before I finished.,Did the person offer some help?,yes,1,Someone,helped,me,but,he,left,before,I,finished.,L2SPAN_2023_49,001,2023-09-13_20h14.56.634,spr_english_2023_list1,2021.1.1,MacIntel,60.0024001,,,space,35.4684,space,0.1351,space,0.1538,space,0.1398,space,0.1548,space,0.2168,space,0.2024,space,0.2064,space,0.2994,n,0,5.2176,0,11,11,11,1,,
,,,,,,,,,,,,,,,,,,,,,,,,,,,,,12,12_2,neutral_gender_someone,1,9,neutral,Someone scared me and they ran after I screamed.,Did the person write a note?,no,0,Someone,scared,me,and,they,ran,after,I,screamed.,L2SPAN_2023_49,001,2023-09-13_20h14.56.634,spr_english_2023_list1,2021.1.1,MacIntel,60.0024001,,,space,41.7269,space,0.2499,space,0.3125,space,0.2743,space,0.2891,space,0.2682,space,0.2673,space,0.2715,space,0.3666,n,0,3.9643,0,12,12,12,1,,
,,,,,,,,,,,,,,,,,,,,,,,,,,,,,50,NA,filler,1and2,9,NA,"He smiled warmly, extending a hand in friendly greeting.",Did someone fall?,,0,He,smiled,"warmly,",extending,a,hand,in,friendly,greeting.,L2SPAN_2023_49,001,2023-09-13_20h14.56.634,spr_english_2023_list1,2021.1.1,MacIntel,60.0024001,,,space,74.9059,space,0.1991,space,0.1832,space,0.199,space,0.2731,space,0.2659,space,0.1677,space,0.3014,space,0.3193,n,0,1.0353,0,13,13,13,1,,
,,,,,,,,,,,,,,,,,,,,,,,,,,,,,36,36_2,inclusive_gender_they,1,9,they,Helen is anxious because they dread the presentation earlier.,Did Helen's presentation go well?,no,0,Helen,is,anxious,because,they,dread,the,presentation,earlier.,L2SPAN_2023_49,001,2023-09-13_20h14.56.634,spr_english_2023_list1,2021.1.1,MacIntel,60.0024001,,,space,2.352,space,0.2162,space,0.1452,space,0.1551,space,0.175,space,0.177,space,0.169,space,0.1633,space,0.3417,n,0,5.0027,0,14,14,14,1,,
,,,,,,,,,,,,,,,,,,,,,,,,,,,,,16,16_2,neutral_gender_someone,1,9,neutral,Someone passed me and they sped before I noticed.,Was everybody going slow?,no,0,Someone,passed,me,and,they,sped,before,I,noticed.,L2SPAN_2023_49,001,2023-09-13_20h14.56.634,spr_english_2023_list1,2021.1.1,MacIntel,60.0024001,,,space,12.1024,space,0.6513,space,0.2173,space,0.1866,space,0.1741,space,0.1512,space,0.1742,space,0.1682,space,0.1362,n,0,1.182,0,15,15,15,1,,
,,,,,,,,,,,,,,,,,,,,,,,,,,,,,20,20_1,inclusive_gender_reflexive,1,9,himself,Mike was jogging by himself in the park earlier.,Was Mike sleeping?,no,0,Mike,was,jogging,by,himself,in,the,park,earlier.,L2SPAN_2023_49,001,2023-09-13_20h14.56.634,spr_english_2023_list1,2021.1.1,MacIntel,60.0024001,,,space,3.7541,space,2.6758,space,0.2817,space,0.4192,space,0.2137,space,0.267,space,0.2417,space,0.2993,space,0.3647,n,0,0.9889,0,16,16,16,1,,
,,,,,,,,,,,,,,,,,,,,,,,,,,,,,54,NA,filler,1and2,9,NA,"She danced a lot, her movements resembling pure poetry.",Was it an unpleasant dance?,,0,She,danced,a,"lot,",her,movements,resembling,pure,poetry.,L2SPAN_2023_49,001,2023-09-13_20h14.56.634,spr_english_2023_list1,2021.1.1,MacIntel,60.0024001,,,space,1.3159,space,0.2315,space,0.2158,space,0.2473,space,0.2498,space,0.2436,space,0.2704,space,0.291,space,0.8331,n,0,0.9461,0,17,17,17,1,,
,,,,,,,,,,,,,,,,,,,,,,,,,,,,,4,4_2,neutral_gender_someone,1,9,neutral,Someone punched me but they ran before I noticed.,Was everybody involved peaceful?,no,0,Someone,punched,me,but,they,ran,before,I,noticed.,L2SPAN_2023_49,001,2023-09-13_20h14.56.634,spr_english_2023_list1,2021.1.1,MacIntel,60.0024001,,,space,0.4303,space,0.167,space,0.171,space,0.1659,space,0.1751,space,0.1888,space,0.1822,space,0.1809,space,0.2202,n,0,1.0137,0,18,18,18,1,,
,,,,,,,,,,,,,,,,,,,,,,,,,,,,,7,7_1,neutral_gender_someone,1,9,masculine,Someone threatened me but he ran before I reacted.,Was there a threat?,yes,1,Someone,threatened,me,but,he,ran,before,I,reacted.,L2SPAN_2023_49,001,2023-09-13_20h14.56.634,spr_english_2023_list1,2021.1.1,MacIntel,60.0024001,,,space,0.2685,space,0.2002,space,0.1694,space,0.1854,space,0.1704,space,0.2089,space,0.2187,space,0.2671,space,0.2789,y,0,1.2216,0,19,19,19,1,,
,,,,,,,,,,,,,,,,,,,,,,,,,,,,,19,19_2,inclusive_gender_reflexive,1,9,themself,James was studying by themself in the library yesterday.,Was James at the library?,yes,1,James,was,studying,by,themself,in,the,library,yesterday.,L2SPAN_2023_49,001,2023-09-13_20h14.56.634,spr_english_2023_list1,2021.1.1,MacIntel,60.0024001,,,space,0.7266,space,0.2019,space,0.1765,space,0.1859,space,0.1888,space,0.2021,space,0.182,space,0.1752,space,0.1789,y,0,11.0497,0,20,20,20,1,,
,,,,,,,,,,,,,,,,,,,,,,,,,,,,,11,11_1,neutral_gender_someone,1,9,masculine,Someone pushed me but he tripped after I fell.,Was there any sort of physical violence?,yes,1,Someone,pushed,me,but,he,tripped,after,I,fell.,L2SPAN_2023_49,001,2023-09-13_20h14.56.634,spr_english_2023_list1,2021.1.1,MacIntel,60.0024001,,,space,0.8313,space,0.1847,space,0.1854,space,0.4128,space,0.2236,space,0.2016,space,0.2062,space,0.2345,space,0.2829,y,0,1.9792,0,21,21,21,1,,
,,,,,,,,,,,,,,,,,,,,,,,,,,,,,37,37_1,inclusive_gender_they,1,9,she,Emily is grateful because she got nice gifts yesterday.,Did Emily get presents?,yes,1,Emily,is,grateful,because,she,got,nice,gifts,yesterday.,L2SPAN_2023_49,001,2023-09-13_20h14.56.634,spr_english_2023_list1,2021.1.1,MacIntel,60.0024001,,,space,1.1828,space,0.1399,space,0.1706,space,0.1836,space,0.3336,space,0.1824,space,0.1556,space,0.1848,space,0.2035,y,0,1.0498,0,22,22,22,1,,
,,,,,,,,,,,,,,,,,,,,,,,,,,,,,32,32_1,inclusive_gender_reflexive,1,9,himself,Hugh was stretching by himself in the garden earlier.,Was Hugh in the attic?,no,0,Hugh,was,stretching,by,himself,in,the,garden,earlier.,L2SPAN_2023_49,001,2023-09-13_20h14.56.634,spr_english_2023_list1,2021.1.1,MacIntel,60.0024001,,,space,0.4013,space,0.1747,space,0.2077,space,0.1397,space,0.1844,space,0.1667,space,0.1618,space,0.1824,space,0.1958,n,0,0.9791,0,23,23,23,1,,
,,,,,,,,,,,,,,,,,,,,,,,,,,,,,44,44_2,inclusive_gender_they,1,9,they,Alice is hopeful because they had good luck yesterday.,Is Alice sad?,no,0,Alice,is,hopeful,because,they,had,good,luck,yesterday.,L2SPAN_2023_49,001,2023-09-13_20h14.56.634,spr_english_2023_list1,2021.1.1,MacIntel,60.0024001,,,space,0.2145,space,0.166,space,0.1501,space,0.1476,space,0.1184,space,0.1491,space,0.1391,space,0.1671,space,0.1671,n,0,0.8833,0,24,24,24,1,,
,,,,,,,,,,,,,,,,,,,,,,,,,,,,,3,3_1,neutral_gender_someone,1,9,masculine,Someone hit me but he ran before I reacted,Was there physical violence?,yes,1,Someone,hit,me,but,he,ran,before,I,reacted.,L2SPAN_2023_49,001,2023-09-13_20h14.56.634,spr_english_2023_list1,2021.1.1,MacIntel,60.0024001,,,space,0.2137,space,0.164,space,0.1493,space,0.1809,space,0.1964,space,0.1816,space,0.2037,space,0.1986,space,0.3151,y,0,2.403,0,25,25,25,1,,
,,,,,,,,,,,,,,,,,,,,,,,,,,,,,39,39_1,inclusive_gender_they,1,9,she,Judy is confused because she lost the map ealier.,Did Judy lose something?,yes,1,Judy,is,confused,because,she,lost,the,map,ealier.,L2SPAN_2023_49,001,2023-09-13_20h14.56.634,spr_english_2023_list1,2021.1.1,MacIntel,60.0024001,,,space,0.3593,space,0.1504,space,0.1519,space,0.1493,space,0.1727,space,0.15,space,0.1818,space,0.1373,space,0.4668,y,0,1.0775,0,26,26,26,1,,
,,,,,,,,,,,,,,,,,,,,,,,,,,,,,18,18_1,inclusive_gender_reflexive,1,9,himself,Luke was reading by himself on the couch earlier.,Was Luke painting?,no,0,Luke,was,reading,by,himself,on,the,couch,earlier.,L2SPAN_2023_49,001,2023-09-13_20h14.56.634,spr_english_2023_list1,2021.1.1,MacIntel,60.0024001,,,space,11.5509,space,0.2508,space,0.181,space,0.1643,space,0.1788,space,0.1994,space,0.2055,space,0.2,space,0.2017,n,0,3.1009,0,27,27,27,1,,
,,,,,,,,,,,,,,,,,,,,,,,,,,,,,14,14_2,neutral_gender_someone,1,9,neutral,Someone photographed me but they quit before I spoke.,Did someone take pictures?,yes,0,Someone,photographed,me,but,they,quit,before,I,spoke.,L2SPAN_2023_49,001,2023-09-13_20h14.56.634,spr_english_2023_list1,2021.1.1,MacIntel,60.0024001,,,space,17.5674,space,0.6302,space,0.191,space,0.201,space,0.1832,space,0.1792,space,0.1741,space,0.1889,space,0.3332,y,0,1.2458,0,28,28,28,1,,
,,,,,,,,,,,,,,,,,,,,,,,,,,,,,30,30_1,inclusive_gender_reflexive,1,9,himself,Scott was drinking by himself at the bar earlier.,Was Scott at his apartment?,no,0,Scott,was,drinking,by,himself,at,the,bar,earlier.,L2SPAN_2023_49,001,2023-09-13_20h14.56.634,spr_english_2023_list1,2021.1.1,MacIntel,60.0024001,,,space,2.6813,space,0.2516,space,0.1884,space,0.2101,space,0.2307,space,0.2178,space,0.241,space,0.2443,space,0.2047,n,0,2.0835,0,29,29,29,1,,
,,,,,,,,,,,,,,,,,,,,,,,,,,,,,53,NA,filler,1and2,9,NA,"Waves crashed against the shore, creating a soothing rhythm.",Was the rhythm violent?,,0,Waves,crashed,against,the,"shore,",creating,a,soothing,rhythm.,L2SPAN_2023_49,001,2023-09-13_20h14.56.634,spr_english_2023_list1,2021.1.1,MacIntel,60.0024001,,,space,0.6031,space,0.2653,space,0.2013,space,0.2176,space,0.2343,space,0.2457,space,0.2364,space,0.24,space,0.285,n,0,4.4405,0,30,30,30,1,,
,,,,,,,,,,,,,,,,,,,,,,,,,,,,,28,28_1,inclusive_gender_reflexive,1,9,himself,Tom was swimming by himself at the beach earlier.,Was Tom at the park?,no,0,Tom,was,swimming,by,himself,at,the,beach,earlier.,L2SPAN_2023_49,001,2023-09-13_20h14.56.634,spr_english_2023_list1,2021.1.1,MacIntel,60.0024001,,,space,22.0148,space,0.2141,space,0.172,space,0.1833,space,0.2832,space,0.1847,space,0.1359,space,0.18,space,0.3894,n,0,2.9642,0,31,31,31,1,,
,,,,,,,,,,,,,,,,,,,,,,,,,,,,,46,46_2,inclusive_gender_they,1,9,they,Kate is tipsy because they had two drinks earlier.,Is Kate sober?,no,0,Kate,is,tipsy,because,they,had,two,drinks,earlier.,L2SPAN_2023_49,001,2023-09-13_20h14.56.634,spr_english_2023_list1,2021.1.1,MacIntel,60.0024001,,,space,0.3092,space,0.1545,space,0.1671,space,0.165,space,0.1586,space,0.182,space,0.1664,space,0.1827,space,0.1743,y,0,1.1145,0,32,32,32,1,,
,,,,,,,,,,,,,,,,,,,,,,,,,,,,,35,35_1,inclusive_gender_they,1,9,she,Susan is joyful because she won the lottery yesterday.,Is Susan in a good mood?,yes,1,Susan,is,joyful,because,she,won,the,lottery,yesterday.,L2SPAN_2023_49,001,2023-09-13_20h14.56.634,spr_english_2023_list1,2021.1.1,MacIntel,60.0024001,,,space,3.484,space,0.2199,space,0.1688,space,0.1835,space,0.169,space,0.1836,space,0.1742,space,0.3511,space,0.3534,y,0,1.1992,0,33,33,33,1,,
,,,,,,,,,,,,,,,,,,,,,,,,,,,,,24,24_1,inclusive_gender_reflexive,1,9,himself,Jake was strolling by himself at the park earlier.,Was Jake swimming?,no,0,Jake,was,strolling,by,himself,at,the,park,earlier.,L2SPAN_2023_49,001,2023-09-13_20h14.56.634,spr_english_2023_list1,2021.1.1,MacIntel,60.0024001,,,space,0.3647,space,0.1208,space,0.1741,space,0.1565,space,0.1709,space,0.1506,space,0.1766,space,0.1686,space,0.1565,n,0,1.0686,0,34,34,34,1,,
,,,,,,,,,,,,,,,,,,,,,,,,,,,,,52,NA,filler,1and2,9,NA,"I awaited eagerly, anticipating the arrival of the morning.",Was the person waiting for something?,,1,I,awaited,"eagerly,",anticipating,the,arrival,of,the,morning.,L2SPAN_2023_49,001,2023-09-13_20h14.56.634,spr_english_2023_list1,2021.1.1,MacIntel,60.0024001,,,space,0.2326,space,0.1647,space,0.1698,space,0.2006,space,0.1674,space,0.2019,space,0.1993,space,0.1874,space,0.1892,y,0,1.3126,0,35,35,35,1,,
,,,,,,,,,,,,,,,,,,,,,,,,,,,,,27,27_2,inclusive_gender_reflexive,1,9,themself,Paul was drawing by themself in the attic yesterday.,Was Paul drawing?,yes,1,Paul,was,drawing,by,themself,in,the,attic,yesterday.,L2SPAN_2023_49,001,2023-09-13_20h14.56.634,spr_english_2023_list1,2021.1.1,MacIntel,60.0024001,,,space,0.3203,space,0.1553,space,0.1845,space,0.1433,space,0.1658,space,0.163,space,0.1511,space,0.3646,space,0.4632,y,0,1.1522,0,36,36,36,1,,
,,,,,,,,,,,,,,,,,,,,,,,,,,,,,57,NA,filler,1and2,9,NA,"The child's laughter echoed, bringing joy to the playground.",Was the child happy?,,1,The,child's,laughter,"echoed,",bringing,joy,to,the,playground.,L2SPAN_2023_49,001,2023-09-13_20h14.56.634,spr_english_2023_list1,2021.1.1,MacIntel,60.0024001,,,space,0.2496,space,0.1403,space,0.1811,space,0.1402,space,0.166,space,0.1669,space,0.1734,space,0.1716,space,0.1554,y,0,0.9158,0,37,37,37,1,,
,,,,,,,,,,,,,,,,,,,,,,,,,,,,,45,45_1,inclusive_gender_they,1,9,she,Patricia is upset because she missed the bus earlier.,Is Patricia in a bad mood?,yes,1,Patricia,is,upset,because,she,missed,the,bus,earlier.,L2SPAN_2023_49,001,2023-09-13_20h14.56.634,spr_english_2023_list1,2021.1.1,MacIntel,60.0024001,,,space,0.2325,space,0.1401,space,0.1494,space,0.1603,space,0.1592,space,0.1682,space,0.168,space,0.164,space,0.149,y,0,2.3173,0,38,38,38,1,,
,,,,,,,,,,,,,,,,,,,,,,,,,,,,,43,43_1,inclusive_gender_they,1,9,she,Rose is content because she won an award earlier.,Is Rose happy?,yes,1,Rose,is,content,because,she,won,an,award,earlier.,L2SPAN_2023_49,001,2023-09-13_20h14.56.634,spr_english_2023_list1,2021.1.1,MacIntel,60.0024001,,,space,0.2988,space,0.1356,space,0.1663,space,0.1588,space,0.188,space,0.1588,space,0.1718,space,0.1847,space,0.1622,y,0,4.0173,0,39,39,39,1,,
,,,,,,,,,,,,,,,,,,,,,,,,,,,,,29,29_2,inclusive_gender_reflexive,1,9,themself,Kyle was cycling by themself on the trail yesterday.,Was Kyle on the trail?,yes,1,Kyle,was,cycling,by,themself,on,the,trail,yesterday.,L2SPAN_2023_49,001,2023-09-13_20h14.56.634,spr_english_2023_list1,2021.1.1,MacIntel,60.0024001,,,space,0.3147,space,0.1389,space,0.1833,space,0.1508,space,0.152,space,0.1666,space,0.1515,space,0.1754,space,0.1696,y,0,0.7656,0,40,40,40,1,,
,,,,,,,,,,,,,,,,,,,,,,,,,,,,,47,47_1,inclusive_gender_they,1,9,she,Jane is happy because she won the game earlier.,Did Jane win something?,yes,1,Jane,is,happy,because,she,won,the,game,earlier.,L2SPAN_2023_49,001,2023-09-13_20h14.56.634,spr_english_2023_list1,2021.1.1,MacIntel,60.0024001,,,space,0.251,space,0.1339,space,0.1828,space,0.1511,space,0.1529,space,0.1576,space,0.1666,space,0.1693,space,0.1664,y,0,0.9817,0,41,41,41,1,,
,,,,,,,,,,,,,,,,,,,,,,,,,,,,,2,2_2,neutral_gender_someone,1,9,neutral,Someone warned me and they helped before I fell.,Did everybody maintain stability?,no,0,Someone,warned,me,and,they,helped,before,I,fell.,L2SPAN_2023_49,001,2023-09-13_20h14.56.634,spr_english_2023_list1,2021.1.1,MacIntel,60.0024001,,,space,0.4859,space,0.183,space,0.1682,space,0.1691,space,0.1675,space,0.1728,space,0.1736,space,0.1839,space,0.1707,n,0,4.0139,0,42,42,42,1,,
,,,,,,,,,,,,,,,,,,,,,,,,,,,,,41,41_1,inclusive_gender_they,1,9,she,Laura is happy because she passed the exam earlier.,Is Laura in a good mood?,yes,1,Laura,is,happy,because,she,passed,the,exam,earlier.,L2SPAN_2023_49,001,2023-09-13_20h14.56.634,spr_english_2023_list1,2021.1.1,MacIntel,60.0024001,,,space,0.3649,space,0.1635,space,0.1506,space,0.1498,space,0.1697,space,0.182,space,0.184,space,0.1679,space,0.183,y,0,0.9308,0,43,43,43,1,,
,,,,,,,,,,,,,,,,,,,,,,,,,,,,,58,NA,filler,1and2,9,NA,"Scent of flowers wafted, enchanting with its delicate fragrance.",Did the flowers smell bad?,,0,Scent,of,flowers,"wafted,",enchanting,with,its,delicate,fragrance.,L2SPAN_2023_49,001,2023-09-13_20h14.56.634,spr_english_2023_list1,2021.1.1,MacIntel,60.0024001,,,space,0.2492,space,0.1504,space,0.1673,space,0.1666,space,0.1495,space,0.1683,space,0.1677,space,0.1542,space,0.3859,n,0,2.4526,0,44,44,44,1,,
,,,,,,,,,,,,,,,,,,,,,,,,,,,,,42,42_2,inclusive_gender_they,1,9,they,Nancy is upset because they fell on stage yesterday.,Is Nancy calm?,no,0,Nancy,is,upset,because,they,fell,on,stage,yesterday.,L2SPAN_2023_49,001,2023-09-13_20h14.56.634,spr_english_2023_list1,2021.1.1,MacIntel,60.0024001,,,space,0.3818,space,0.1628,space,0.1662,space,0.1528,space,0.1706,space,0.166,space,0.2334,space,0.3532,space,0.3177,n,0,1.4518,0,45,45,45,1,,
,,,,,,,,,,,,,,,,,,,,,,,,,,,,,48,48_2,inclusive_gender_they,1,9,they,Martha is tired because they read two novels earlier.,Does Martha have a lot of energy?,no,0,Martha,is,tired,because,they,read,two,novels,earlier.,L2SPAN_2023_49,001,2023-09-13_20h14.56.634,spr_english_2023_list1,2021.1.1,MacIntel,60.0024001,,,space,0.1994,space,0.1747,space,0.1805,space,0.1896,space,0.1848,space,0.1822,space,0.1984,space,0.3322,space,0.188,n,0,1.5645,0,46,46,46,1,,
,,,,,,,,,,,,,,,,,,,,,,,,,,,,,15,15_1,neutral_gender_someone,1,9,masculine,Someone pranked me but he ran before I reacted.,Was a joke mentioned?,yes,1,Someone,pranked,me,but,he,ran,before,I,reacted.,L2SPAN_2023_49,001,2023-09-13_20h14.56.634,spr_english_2023_list1,2021.1.1,MacIntel,60.0024001,,,space,1.0496,space,0.1499,space,0.1712,space,0.2844,space,0.168,space,0.1989,space,0.2152,space,0.1929,space,0.204,y,0,2.6818,0,47,47,47,1,,
,,,,,,,,,,,,,,,,,,,,,,,,,,,,,6,6_2,neutral_gender_someone,1,9,neutral,Someone kissed me and they smiled before I blushed.,Did someone steal a pencil?,no,0,Someone,kissed,me,and,they,smiled,before,I,blushed.,L2SPAN_2023_49,001,2023-09-13_20h14.56.634,spr_english_2023_list1,2021.1.1,MacIntel,60.0024001,,,space,0.4518,space,0.1703,space,0.2256,space,0.1833,space,0.1978,space,0.2014,space,0.2206,space,0.1868,space,0.3798,n,0,1.265,0,48,48,48,1,,
,,,,,,,,,,,,,,,,,,,,,,,,,,,,,49,NA,filler,1and2,9,NA,"The sun behind distant mountains, painting the nice sky.",Was the sun showing?,,1,The,sun,behind,distant,"mountains,",painting,the,nice,sky.,L2SPAN_2023_49,001,2023-09-13_20h14.56.634,spr_english_2023_list1,2021.1.1,MacIntel,60.0024001,,,space,0.1975,space,0.1648,space,0.1859,space,0.2142,space,0.2026,space,0.2061,space,0.2159,space,0.2122,space,0.5436,y,0,1.2217,0,49,49,49,1,,
,,,,,,,,,,,,,,,,,,,,,,,,,,,,,38,38_2,inclusive_gender_they,1,9,they,Ruth is angry because they lost the job yesterday.,Is Ruth peaceful?,no,0,Ruth,is,angry,because,they,lost,the,job,yesterday.,L2SPAN_2023_49,001,2023-09-13_20h14.56.634,spr_english_2023_list1,2021.1.1,MacIntel,60.0024001,,,space,0.3368,space,0.1841,space,0.1935,space,0.1854,space,0.1843,space,0.2353,space,0.227,space,0.2168,space,0.2018,n,0,0.7993,0,50,50,50,1,,
,,,,,,,,,,,,,,,,,,,,,,,,,,,,,5,5_1,neutral_gender_someone,1,9,masculine,Someone robbed me but he fled before I screamed.,Did a theft occur?,yes,1,Someone,robbed,me,but,he,fled,before,I,screamed.,L2SPAN_2023_49,001,2023-09-13_20h14.56.634,spr_english_2023_list1,2021.1.1,MacIntel,60.0024001,,,space,0.1839,space,0.1573,space,0.1776,space,0.1697,space,0.1569,space,0.1868,space,0.3155,space,0.2709,space,0.4492,y,0,1.0837,0,51,51,51,1,,
,,,,,,,,,,,,,,,,,,,,,,,,,,,,,59,NA,filler,1and2,9,NA,"Colorful balloons floated away, disappearing into the infinite sky.",Did the balloons have many colors?,,1,Colorful,balloons,floated,"away,",disappearing,into,the,infinite,sky.,L2SPAN_2023_49,001,2023-09-13_20h14.56.634,spr_english_2023_list1,2021.1.1,MacIntel,60.0024001,,,space,0.3131,space,0.1669,space,0.1729,space,0.219,space,0.1855,space,0.2057,space,0.2148,space,0.1824,space,0.44,y,0,2.7452,0,52,52,52,1,,
,,,,,,,,,,,,,,,,,,,,,,,,,,,,,13,13_1,neutral_gender_someone,1,9,masculine,Someone filmed me but he stopped after I objected.,Did the person use a technological device?,yes,1,Someone,filmed,me,but,he,stopped,after,I,objected.,L2SPAN_2023_49,001,2023-09-13_20h14.56.634,spr_english_2023_list1,2021.1.1,MacIntel,60.0024001,,,space,0.3336,space,0.1531,space,0.1692,space,0.1735,space,0.1852,space,0.1755,space,0.2169,space,0.3732,space,0.2489,y,0,1.8154,0,53,53,53,1,,
,,,,,,,,,,,,,,,,,,,,,,,,,,,,,40,40_2,inclusive_gender_they,1,9,they,Clara is relieved because they got a promotion yesterday.,Does Clara feel bad?,no,0,Clara,is,relieved,because,they,got,a,promotion,yesterday.,L2SPAN_2023_49,001,2023-09-13_20h14.56.634,spr_english_2023_list1,2021.1.1,MacIntel,60.0024001,,,space,0.2971,space,0.1505,space,0.1909,space,0.1993,space,0.2181,space,0.1805,space,0.1944,space,0.1887,space,0.4501,n,0,1.1487,0,54,54,54,1,,
,,,,,,,,,,,,,,,,,,,,,,,,,,,,,25,25_2,inclusive_gender_reflexive,1,9,themself,Blake was fishing by themself at the riverbank yesterday.,Was Blake fishing?,yes,1,Blake,was,fishing,by,themself,at,the,riverbank,yesterday.,L2SPAN_2023_49,001,2023-09-13_20h14.56.634,spr_english_2023_list1,2021.1.1,MacIntel,60.0024001,,,space,0.2323,space,0.1725,space,0.1859,space,0.4324,space,0.2176,space,0.1855,space,0.2506,space,0.2327,space,0.4545,y,0,0.7999,0,55,55,55,1,,
,,,,,,,,,,,,,,,,,,,,,,,,,,,,,51,NA,filler,1and2,9,NA,"The old oak tree stood tall, casting shade below.",Was a big plant mentioned? ,,1,The,old,oak,tree,stood,"tall,",casting,shade,below.,L2SPAN_2023_49,001,2023-09-13_20h14.56.634,spr_english_2023_list1,2021.1.1,MacIntel,60.0024001,,,space,0.262,space,0.1456,space,0.1556,space,0.1602,space,0.1742,space,0.1812,space,0.1826,space,0.188,space,0.2041,y,0,0.9586,0,56,56,56,1,,
,,,,,,,,,,,,,,,,,,,,,,,,,,,,,26,26_1,inclusive_gender_reflexive,1,9,himself,Mark was walking by himself in the park earlier.,Was Mark in the living room?,no,0,Mark,was,walking,by,himself,in,the,park,earlier.,L2SPAN_2023_49,001,2023-09-13_20h14.56.634,spr_english_2023_list1,2021.1.1,MacIntel,60.0024001,,,space,0.2679,space,0.1867,space,0.1856,space,0.1816,space,0.2146,space,0.201,space,0.1721,space,0.1851,space,0.1824,n,0,1.1361,0,57,57,57,1,,
,,,,,,,,,,,,,,,,,,,,,,,,,,,,,17,17_2,inclusive_gender_reflexive,1,9,themself,John was sitting by themself on the bench yesterday.,Was John on a bench?,yes,1,John,was,sitting,by,themself,on,the,bench,yesterday.,L2SPAN_2023_49,001,2023-09-13_20h14.56.634,spr_english_2023_list1,2021.1.1,MacIntel,60.0024001,,,space,0.1983,space,0.1601,space,0.1735,space,0.1686,space,0.1648,space,0.143,space,0.1849,space,0.1742,space,0.1909,y,0,0.9007,0,58,58,58,1,,
,,,,,,,,,,,,,,,,,,,,,,,,,,,,,8,8_2,neutral_gender_someone,1,9,neutral,Someone serenaded me and they stopped before I applauded.,Did the person dance?,no,0,Someone,serenaded,me,and,they,stopped,before,I,applauded.,L2SPAN_2023_49,001,2023-09-13_20h14.56.634,spr_english_2023_list1,2021.1.1,MacIntel,60.0024001,,,space,0.3185,space,0.1521,space,0.1852,space,0.1693,space,0.1693,space,0.1744,space,0.2019,space,0.223,space,0.3998,n,0,2.8471,0,59,59,59,1,,
,,,,,,,,,,,,,,,,,,,,,,,,,,,,,,,,,,,,,,,,,,,,,,,,L2SPAN_2023_49,001,2023-09-13_20h14.56.634,spr_english_2023_list1,2021.1.1,MacIntel,60.0024001,,,,,,,,,,,,,,,,,,,,,,,,,,,,,y,2.5161
